samples,acc_x,acc_y,gyr_x,gyr_y,gyr_z
0,0.9752501965095120,-0.024094858111587600,-1.3108,0.15540000000000000,-0.7627
1,0.9760235405974520,-0.02061664034099320,-1.4157,-0.16130000000000000,-0.7978
2,0.9768390890977040,-0.024631061218662900,-1.6817,-0.1842,-0.7826
3,0.9759741537324160,-0.023330937241565700,-1.4689000000000000,-0.24880000000000000,-0.6075000000000000
4,0.9768054276026980,-0.022043867722412900,-1.3406,-0.3113,-0.8446
5,0.9761625580702890,-0.0172448789239955,-1.4049,-0.4014000000000000,-0.4785
6,0.9801286924586890,-0.016525183156327600,-1.1657000000000000,-0.333,-0.13590000000000000
7,0.9795653600872880,-0.015631828086043700,-1.0196,-0.40680000000000000,-0.40200000000000000
8,0.9778759431712160,-0.016759463160202600,-1.1271,-0.3825,-0.25200000000000000
9,0.9788736138640620,-0.018996887214288300,-0.9308,-0.19550000000000000,-0.13430000000000000
10,0.9790552658961010,-0.02129842316183410,-0.7701,-0.7017,-0.2095000000000000
11,0.9806967864561290,-0.015898659205743100,-0.833,-0.8590000000000000,0.09319999999999970
12,0.9788980522094700,-0.013897205732844600,-0.7120000000000000,-1.2282000000000000,0.3083000000000000
13,0.9808862411526870,-0.019466837696869000,-0.8201000000000000,-1.2468,0.4313000000000000
14,0.9782956564983970,-0.02461984738927160,-0.7226000000000000,-1.1595,0.09620000000000010
15,0.9748130872418210,-0.02326900609280440,-0.8657000000000000,-1.1262000000000000,0.22840000000000000
16,0.9761110104673870,-0.022248217505468300,-1.0272,-1.0439,0.6525000000000000
17,0.9755985554700130,-0.020442320812917800,-0.7986,-0.7342,0.050900000000000100
18,0.9742539062880800,-0.021768203586342000,-0.6592000000000000,-0.8635,0.22680000000000000
19,0.97941003704629,-0.02215542581819480,-0.5762,-0.7077000000000000,0.41110000000000000
20,0.9806838420357610,-0.019616818913696400,-0.18180000000000000,-0.6823000000000000,0.5460000000000000
21,0.979964226295422,-0.022776477900200400,-0.12650000000000000,-1.4904,0.4955000000000000
22,0.9818903640488850,-0.023610062559589700,-0.42159999999999900,-1.6085000000000000,0.4898000000000000
23,0.9818887434954850,-0.024238697230960700,-0.7085000000000000,-1.2542,0.5074000000000000
24,0.9812220558294630,-0.022503094542988700,-0.7010000000000000,-1.5288000000000000,0.7792999999999990
25,0.9753871832888910,-0.024668093864877500,-0.5325000000000000,-1.6427,0.5693000000000000
26,0.9737064493379490,-0.025513252476635800,-0.3329000000000000,-1.4691,0.3680000000000000
27,0.9734401283924680,-0.026463436953495900,-0.5758000000000000,-1.5326,0.2345000000000000
28,0.9781911908245940,-0.027680012399749200,-0.2201000000000000,-1.4229,0.2249000000000000
29,0.9778667700386980,-0.029135479424676200,-0.3298000000000000,-1.4287,-0.16890000000000000
30,0.978998846629583,-0.027522448593556500,-0.5440000000000000,-1.8646,0.025200000000000200
31,0.9786007806947330,-0.030415216439864800,-0.7279000000000000,-1.8160000000000000,0.2647000000000000
32,0.9768620269307050,-0.02920064167682140,-0.7244000000000000,-1.6936,0.011900000000000200
33,0.9765705974109410,-0.030720550707938000,-0.6822000000000000,-1.5396,0.0738000000000002
34,0.9753393369499270,-0.03191254776095820,-0.9800000000000000,-1.8219000000000000,-0.21150000000000000
35,0.9787581444326040,-0.02800810443933460,-0.8595000000000000,-2.1908,-0.3451000000000000
36,0.9744595565152220,-0.027018186393926600,-1.2592000000000000,-2.305,-0.19080000000000000
37,0.975515237017738,-0.02428772397301840,-0.9416000000000000,-2.102,-0.12460000000000000
38,0.978949949931934,-0.02565976250809410,-0.9842000000000000,-1.9756,-0.21520000000000000
39,0.97788537639255,-0.026310424701605600,-1.0108000000000000,-1.9887,-0.5168000000000000
40,0.9788112625718260,-0.02528569476834600,-0.7913000000000000,-2.3265,-0.5021000000000000
41,0.9779031124492060,-0.02409180706969250,-0.677500000000001,-2.517600000000000,-0.3531999999999980
42,0.9774173165556030,-0.0211244537533205,-0.8265000000000000,-2.0309,-0.11680000000000000
43,0.9753244518668460,-0.02076337044760450,-0.9003000000000000,-2.352500000000000,-0.5436999999999970
44,0.9786781671212900,-0.022502724416594900,-0.8979000000000000,-1.9023000000000000,-0.45610000000000000
45,0.974732229629894,-0.022867078839359100,-1.1569000000000000,-1.9307000000000000,-0.5442000000000000
46,0.9743900527805110,-0.02530996305568170,-1.3987000000000000,-2.0991,-0.5593000000000000
47,0.9699045010171670,-0.02353859815533340,-0.7203000000000000,-1.7353,-0.4216000000000000
48,0.9707787195525490,-0.023866190024116300,-0.4691000000000020,-1.8416000000000000,-0.4747000000000000
49,0.9696393504713640,-0.019491256035445400,-0.4413000000000000,-1.7612000000000000,-0.36230000000000000
50,0.9767814694212600,-0.022824894433879100,-0.6083000000000000,-1.6406,-0.5238000000000000
51,0.9775913759948610,-0.022245096439660900,-0.7680000000000000,-2.1075,-0.6081000000000000
52,0.9759255771440810,-0.02151779807579560,-0.6137000000000000,-2.0286,-0.7492000000000000
53,0.9753852726364260,-0.022718908240836600,-0.5694000000000000,-1.6462,-0.2086000000000000
54,0.9705249729010420,-0.023306208797091800,-0.5050000000000000,-1.729,-0.16340000000000000
55,0.9700599440991570,-0.021088881605849100,-0.3875000000000000,-1.3829,-0.20490000000000000
56,0.970167590859264,-0.020911861155440500,-0.5192000000000000,-1.4594,-0.05329999999999980
57,0.9742399215124430,-0.023506667251304000,-0.08930000000000010,-1.2144,-0.21440000000000000
58,0.9813253611070040,-0.022506075560971400,-0.21080000000000000,-1.1203,-9.99999999998628E-05
59,0.9807256563148480,-0.024917909173877000,-0.20670000000000000,-1.1876000000000000,-0.2960000000000000
60,0.9821323967001980,-0.02626106784681830,-0.3240000000000000,-1.2339000000000000,-0.26510000000000000
61,0.9839100937629060,-0.022550480724814400,-0.5870999999999970,-1.586500000000000,-0.19480000000000100
62,0.9819409413204310,-0.01982298931847270,-0.5426000000000000,-1.7922,-0.10720000000000000
63,0.9778004774005390,-0.0237815511209231,-0.6113000000000000,-1.8726000000000000,-0.09059999999999980
64,0.9784532703216700,-0.023450418042858700,-0.5016000000000000,-1.4228,-0.15660000000000000
65,0.9732592066098010,-0.024625319257850600,-0.008600000000000080,-1.33,-0.07699999999999980
66,0.9705173402945960,-0.025555246817210800,-0.09960000000000010,-1.2163,0.13570000000000000
67,0.9694441338071620,-0.02497857989221610,-0.25300000000000000,-0.9199,-0.07229999999999990
68,0.9735674318651120,-0.022233572504372100,0.03059999999999990,-1.1358,-0.16010000000000000
69,0.9751543737871750,-0.024136892465826800,0.13940000000000000,-1.2739,-0.06469999999999980
70,0.9759393818582290,-0.027615660424304000,0.06889999999999990,-0.9793,-0.21000000000000000
71,0.9776466648753650,-0.02889713803388520,-0.30480000000000000,-0.9747000000000000,-0.06449999999999990
72,0.9821295857402890,-0.029320912747982300,-0.5159,-0.7206,0.05760000000000010
73,0.9801761586678430,-0.023470935049175900,-0.6544,-0.5671,0.1912000000000000
74,0.9746748800456840,-0.025992436112230000,-0.5487,-0.6052,-0.06319999999999990
75,0.9699627809190700,-0.021293971641692200,-0.46100000000000000,-0.43630000000000000,0.14540000000000000
76,0.9706324295962440,-0.023642493634421600,-0.3123000000000000,-0.4587,-0.09929999999999990
77,0.9700316544385700,-0.023763534968618300,-0.18730000000000000,-0.4593,-0.12030000000000000
78,0.9792570448012320,-0.02517578723621220,-0.3069,-0.3972,-0.01860000000000000
79,0.9834410035741060,-0.02368081672130650,-0.24440000000000000,-0.5365,0.20170000000000000
80,0.9840455800298780,-0.026649340437356300,-0.581,-0.5095,0.10500000000000000
81,0.9779459170664810,-0.026387741104250700,-0.6958999999999990,-0.36830000000000200,-0.12389999999999700
82,0.9772505696134770,-0.026037371457123500,-0.8407000000000000,-0.14000000000000300,-0.3513000000000010
83,0.9770645660954560,-0.02290055026946010,-0.8179999999999970,-0.3687000000000020,-0.4613999999999950
84,0.9732070988156000,-0.023039787817450500,-0.5518,-0.5205,0.030400000000000100
85,0.978722132134827,-0.025072011798116600,-0.6248,-0.6008,-0.22870000000000000
86,0.9796874517801700,-0.021066774056380200,-0.5693000000000010,-0.36770000000000300,-0.43979999999999800
87,0.9772003724717410,-0.023359577021714900,-0.6438999999999990,-0.558299999999998,-0.23060000000000200
88,0.9749963398204280,-0.02619143406769900,-0.6038000000000010,-0.39680000000000200,0.0017999999999974700
89,0.9773106401268530,-0.024800519086538300,-0.4789000000000010,-0.3999000000000000,0.19929999999999800
90,0.977745788724998,-0.027062211427959600,-0.35900000000000000,-0.4724,-0.006099999999999940
91,0.9751265342803100,-0.022960290670106600,-0.39030000000000000,-0.5475,0.10490000000000000
92,0.9733855497545030,-0.022158426843009600,-0.5854,-0.3102000000000000,-0.04950000000000000
93,0.9773657689527010,-0.02045117383612150,-0.8429000000000000,-0.40990000000000000,0.06890000000000000
94,0.9764797263795490,-0.02180476607200220,-0.5589,-0.34970000000000000,-0.14030000000000000
95,0.9764729940805470,-0.024075521508364300,-0.48340000000000000,-0.34710000000000000,0.0025000000000000400
96,0.9785621174917020,-0.026466608036383500,-0.4358000000000010,-0.164100000000002,-0.05479999999999940
97,0.9759405122442430,-0.025132712526703900,-0.6941999999999970,-0.023900000000001500,-0.08599999999999970
98,0.9797444412414030,-0.024247300168763100,-0.7180000000000000,-0.2692999999999970,-0.11990000000000000
99,0.9800330898115060,-0.023223630597604700,-0.6990000000000000,-0.23120000000000000,0.047200000000000000
100,0.9755557508527380,-0.022344040227804700,-0.6269,-0.3177,-0.42340000000000000
101,0.9757119942080120,-0.022712956208287300,-0.583,-0.3777,-0.03520000000000000
102,0.9754631292235370,-0.02328157038336240,-0.7351,-0.12500000000000000,0.027400000000000000
103,0.979314284347866,-0.020971991689312900,-0.5889,-0.07380000000000000,0.09880000000000000
104,0.9801093758622980,-0.021107898099758900,-0.5047,-0.5988,0.1990000000000000
105,0.982086661082021,-0.023197761763701200,-0.41490000000000000,-1.0437,0.28140000000000000
106,0.9829150539684810,-0.02026439005164870,-0.6309000000000000,-0.8384,0.13930000000000000
107,0.9805659717844530,-0.022008295574941500,-0.519,-0.6385,0.07460000000000010
108,0.9742174638434130,-0.023522692723815000,-0.053300000000000100,-0.9568,0.2458000000000000
109,0.973972140068219,-0.023608892159911900,-0.37620000000000000,-0.8956000000000000,0.3227000000000000
110,0.9724893137003970,-0.026105244635018100,-0.5671,-0.6276,0.06310000000000010
111,0.9729072164092730,-0.028440422070737800,-0.4307000000000000,-0.8425,0.0363000000000001
112,0.978778131257871,-0.026945181463598700,-0.28730000000000000,-0.9547,0.21710000000000000
113,0.97981529543728,-0.026661034430718000,-0.38510000000000000,-0.7037000000000000,0.0669000000000001
114,0.9799726591751520,-0.026832963142357500,-0.6525000000000000,-0.8682000000000000,0.07660000000000010
115,0.9792248338015530,-0.02452058349181430,-1.0934,-1.3424,-0.21980000000000000
116,0.976937632749206,-0.028221017146528200,-0.7789000000000000,-1.4773,-0.10990000000000000
117,0.9775158602071050,-0.028705202490147000,-0.6109000000000000,-1.3428,-0.12250000000000000
118,0.974601595019706,-0.026710481316249700,-0.9101,-1.1892,-0.20880000000000000
119,0.9751607459631990,-0.02751284531414910,-0.6931000000000000,-1.0501,0.22570000000000000
120,0.9761554156312300,-0.021865346759596900,-0.7627000000000000,-1.2294,0.13230000000000000
121,0.9770324051128570,-0.02258254167325240,-0.6098000000000040,-1.2915000000000000,0.10400000000000100
122,0.9766273167799400,-0.022638580809960600,-0.48520000000000300,-1.0992000000000000,0.039300000000001600
123,0.9760885728051880,-0.025227164781041400,-0.36500000000000300,-0.9106000000000040,0.088799999999999
124,0.9767395250977650,-0.02734309734720830,-0.39730000000000000,-0.8877,-0.1660000000000000
125,0.9761273760560440,-0.02640300631714200,-0.6143000000000000,-1.051,0.07030000000000010
126,0.9764500362407140,-0.027506453131293600,-0.5514000000000000,-0.9266,0.2132000000000000
127,0.9737276165663100,-0.025430594249820300,-0.6130000000000000,-1.243,-0.08019999999999980
128,0.9755928535228650,-0.022467632433093900,-0.43220000000000000,-0.9033000000000000,-0.17450000000000000
129,0.9783871177313360,-0.02486472101074280,-0.6266000000000000,-0.8279,0.13870000000000000
130,0.9784664548240230,-0.02545592289925720,-0.42000000000000000,-1.0518,-0.06969999999999990
131,0.9768845646270640,-0.025242379976852500,-0.7150000000000000,-1.3964,0.29560000000000000
132,0.978045230981018,-0.02421246827407940,-0.6021000000000000,-1.0936000000000000,-0.018399999999999900
133,0.9776921504081420,-0.024961073914129700,-0.32110000000000000,-1.1203,-0.3372000000000000
134,0.9766206645082680,-0.02789267502154160,-0.07060000000000010,-1.005,-0.10350000000000000
135,0.9776807965309260,-0.02804535716070220,-0.28780000000000000,-1.0482,-0.17180000000000000
136,0.9793943817001730,-0.02584231484757800,-0.3855000000000000,-1.2809,-0.23650000000000000
137,0.9770145790254570,-0.024107862552451700,-0.7446000000000000,-1.3592,-0.09409999999999990
138,0.978802879709177,-0.0233392700871348,-0.6382000000000000,-1.4796,-0.21400000000000000
139,0.9745499573860600,-0.023661990292301700,-0.34090000000000000,-0.8749,0.1481000000000000
140,0.9726953240505170,-0.024486972013888600,-0.5205000000000000,-0.9533000000000000,-0.04519999999999990
141,0.9774909416977260,-0.024485801614210800,-0.6998000000000000,-0.8321,0.1984000000000000
142,0.9765148083596340,-0.024091286892058000,-0.5591000000000000,-1.3316,-0.000499999999999837
143,0.9760420969342230,-0.02393580379640350,-0.4169000000000000,-1.2288000000000000,0.06250000000000020
144,0.9770898347243960,-0.02860909967216130,-0.4096000000000000,-0.8673,-0.2598000000000000
145,0.9765412974053320,-0.029501304349599600,-0.36360000000000000,-0.6404000000000000,-0.45110000000000000
146,0.9763273443428690,-0.024612714953628500,-0.7259,-0.8057000000000000,-0.47370000000000000
147,0.9796331932515180,-0.024728144371421500,-0.7668999999999990,-1.2270999999999900,-0.39460000000000200
148,0.98064011710421,-0.025256304731993100,-0.46610000000000000,-1.3087,-0.04619999999999980
149,0.9799609451749580,-0.024397101324101600,-0.6309999999999970,-1.528700000000000,0.09199999999999710
150,0.9806947757695040,-0.025979601729438700,-0.5479000000000000,-1.2634,-0.3699000000000000
151,0.9760440576037690,-0.027324470986524500,-0.373500000000004,-1.2223000000000000,-0.23490000000000300
152,0.9707861921043380,-0.026159333105596800,-0.3842000000000000,-1.3341,-0.5050000000000000
153,0.973691174121642,-0.026744572958145800,-0.6379999999999950,-1.2572000000000000,-0.5711999999999980
154,0.9771244065302630,-0.02881059848164260,-0.27950000000000000,-1.4002,-0.49020000000000000
155,0.9812569177343950,-0.02895891913140580,-0.4987000000000000,-1.3286000000000000,-0.46240000000000000
156,0.980523297211586,-0.027048196642074600,-0.4268000000000000,-1.3008,-0.041299999999999800
157,0.9795490645225430,-0.025869864255377800,-0.7144000000000000,-1.1208,-0.05709999999999990
158,0.9768066280126240,-0.024391299342793000,-0.9373000000000000,-1.3282,0.12680000000000000
159,0.9718269775203560,-0.025805492273100400,-0.4902000000000000,-1.1948,0.05320000000000020
160,0.9702523297966180,-0.026241661219682600,-0.12060000000000000,-0.917,-0.07199999999999990
161,0.974477632688023,-0.025184620252583800,-0.5066000000000000,-0.8812000000000000,-0.2000000000000000
162,0.9818035243941610,-0.023926570643390000,-0.7058999999999960,-1.1270999999999900,-0.554099999999992
163,0.9856608916398570,-0.02421835028271640,-0.6427000000000000,-1.4855,-0.2912000000000000
164,0.9815343124614420,-0.02586958415972840,-0.6335999999999970,-1.6279999999999900,-0.19620000000000100
165,0.9765019339631780,-0.02375560225969120,-0.5085000000000000,-1.3464,-0.2687000000000000
166,0.9742370905457010,-0.026619800349762700,-0.35060000000000900,-1.3301000000000000,-0.49069999999999900
167,0.9756900066995350,-0.024911787083254800,-0.7305999999999920,-1.3352,-0.4734000000000000
168,0.9739566347733430,-0.024680137977800800,-0.8216000000000000,-1.5039,-0.15630000000000000
169,0.976965442245823,-0.025202246271662600,-0.5655000000000060,-1.595500000000000,-0.020300000000002800
170,0.9806341050511640,-0.024598920242896500,-0.5533000000000000,-1.5834,-0.30680000000000000
171,0.981722946877884,-0.023271326885327900,-0.8790000000000000,-1.8359000000000000,-0.4042000000000000
172,0.9804227428734580,-0.023233774061478700,-0.7832000000000020,-1.8698000000000000,-0.10840000000000600
173,0.9779049730845910,-0.029196970423131300,-0.2661000000000000,-1.7682000000000000,0.20210000000000000
174,0.9761129111164360,-0.025028376897309600,-0.14310000000000300,-1.7308000000000000,-0.2672999999999890
175,0.9781658021546600,-0.024589827137707600,0.03349999999999990,-1.4464,-0.33860000000000000
176,0.9776652312155530,-0.023322434337923800,-0.08319999999999750,-1.5026000000000000,-0.22810000000000200
177,0.9764743245348820,-0.025706448450796200,-0.4673000000000000,-1.623,-0.005199999999999800
178,0.9763122992051310,-0.022911834122763700,-0.559199999999998,-1.3294000000000100,-0.21129999999999500
179,0.9760724272916850,-0.026794419980319500,-0.26540000000000000,-1.403,-0.33950000000000000
180,0.9745817482422640,-0.026713052194174400,-0.4022000000000000,-1.3186,-0.12310000000000000
181,0.9763368976051970,-0.02853052283909390,-0.7673000000000000,-1.215,-0.14230000000000000
182,0.9745075429020110,-0.028375890033803600,-0.8102000000000000,-0.9965,-0.15910000000000000
183,0.9763692286458680,-0.025883688976357900,-0.6447000000000000,-0.8388,-0.22180000000000000
184,0.9744524140761630,-0.022839309356406200,-0.6904,-0.7822,-0.19120000000000000
185,0.9765574229120040,-0.025280853114978200,-0.827,-0.6484,-0.29220000000000000
186,0.9737145921186140,-0.02341393558452690,-0.8355000000000000,-0.8710000000000000,-0.05639999999999990
187,0.9754778842622100,-0.024425410991521100,-0.8619000000000000,-0.912599999999999,-0.18859999999999700
188,0.975560882605171,-0.023032275251997400,-0.6507,-0.6416,0.09970000000000010
189,0.9734244930531840,-0.022496752377213500,-0.6423999999999920,-0.7527000000000050,0.0032000000000031100
190,0.9753633451484450,-0.024221061208465700,-0.27890000000000000,-0.9811000000000000,0.13930000000000000
191,0.9788799360230050,-0.026962877506590000,-0.37710000000000600,-1.103999999999990,-0.2964999999999960
192,0.9764239473316580,-0.027066732972013900,-0.6445999999999940,-0.8340000000000060,-0.1030000000000040
193,0.9775651770482280,-0.024461303248306000,-0.5102000000000000,-0.8737,-0.11480000000000000
194,0.9786532986289920,-0.02219668990939830,-0.6083999999999980,-0.6997000000000040,-0.31059999999999600
195,0.9761586567380300,-0.022661268557560500,-0.8086,-0.767,-0.2336000000000000
196,0.9748253014128170,-0.02399531411848090,-0.7402000000000020,-1.092199999999990,-0.274099999999999
197,0.9769782866320300,-0.023631469869935300,-0.6120000000000030,-1.0646000000000000,-0.3541999999999980
198,0.9783632195703940,-0.023819344026757400,-0.474,-0.7289,-0.0702999999999999
199,0.9755238199487080,-0.02882887472276460,-0.4728000000000000,-1.3356999999999900,-0.0407000000000005
200,0.9782310644409660,-0.02669092463787330,-0.7185000000000000,-1.0321,-0.07829999999999990
201,0.980684942411527,-0.024735136759240000,-0.9183000000000000,-1.1738,-0.006399999999999860
202,0.9762497078309110,-0.02336758975797040,-0.6290000000000000,-1.049,0.07020000000000010
203,0.9745121244665610,-0.02313251948422760,-0.5586000000000000,-0.9012000000000000,0.06320000000000010
204,0.9790905679513390,-0.022784160523726300,-0.5736000000000000,-0.8393000000000000,0.006100000000000100
205,0.979000687258136,-0.02499721625631590,-0.6086000000000000,-0.9591,0.06610000000000010
206,0.9770765601912990,-0.02509322904355720,-0.4598000000000000,-1.1669,-0.18870000000000000
207,0.9770700279606190,-0.024665232887887400,-0.5676000000000000,-0.9705,-0.11280000000000000
208,0.9754828759668190,-0.025142665925672900,-0.7785,-0.7576000000000000,-0.1297000000000000
209,0.9778012876772400,-0.024825567640325700,-0.6356000000000000,-0.9252000000000000,-0.23230000000000000
210,0.9753934654341700,-0.026615248795460300,-0.6014,-0.7647,-0.027099999999999900
211,0.9768810534280310,-0.02847939537966590,-0.5497000000000000,-1.0809,-0.14950000000000000
212,0.9787698684362140,-0.029400369881662000,-0.29120000000000000,-0.8017,-0.004299999999999900
213,0.9737617282150380,-0.026349287972957200,-0.4086000000000000,-1.0944,-0.1935000000000000
214,0.9724277526780300,-0.028971233336562500,-0.4197000000000000,-0.9782,-0.13840000000000000
215,0.9768342474443360,-0.029143742246332900,-0.34340000000000000,-0.7049,0.2106000000000000
216,0.9755515594214130,-0.027853611681869000,-0.38710000000000000,-1.0259,-0.12570000000000000
217,0.9774690342165770,-0.02769316689185410,-0.5303999999999940,-1.1167000000000000,-0.1584999999999980
218,0.9767635733099480,-0.027851090821024600,-0.34190000000000000,-1.002,-0.031999999999999900
219,0.9799319352684150,-0.026410628920171600,-0.4453999999999960,-1.0620000000000000,-0.2849999999999890
220,0.976848982476177,-0.027532452009605800,-0.5962000000000000,-0.9876,-0.1842000000000000
221,0.9763408689613680,-0.027267091392065600,-0.7301999999999940,-1.3993999999999800,-0.2700999999999960
222,0.978185818990175,-0.02751924750042070,-0.5890000000000000,-1.2611,-0.2866000000000000
223,0.9774929923980160,-0.026715372986697900,-0.22820000000000000,-0.6490000000000000,-0.5021000000000000
224,0.9769546485599060,-0.02551708378498270,-0.4574,-0.7844000000000000,-0.5050000000000000
225,0.9763526229752260,-0.026369694941697800,-0.36000000000000000,-1.109,-0.49920000000000000
226,0.9770082868767620,-0.02697557184155660,-0.42030000000000000,-1.1203,-0.20890000000000000
227,0.9799198111281630,-0.02599021535386710,-0.42710000000000000,-1.1756,-0.14390000000000000
228,0.9788865382775970,-0.024514831527585900,-0.5743000000000000,-0.9983,-0.11350000000000000
229,0.9778596275996390,-0.02848678790412630,-0.5382000000000000,-1.1658,-0.16890000000000000
230,0.9764717836672060,-0.02786038399453440,-0.49910000000000000,-0.9775,-0.30140000000000000
231,0.9791522390112830,-0.0287211379319136,-0.6022000000000000,-1.2219,-0.28470000000000000
232,0.9768469417793030,-0.025988224674073300,-0.6139000000000000,-1.1452,-0.4986000000000000
233,0.9744934080751330,-0.026453473551110800,-0.7547000000000000,-1.1118,-0.3792000000000000
234,0.9758355864133010,-0.02415363818429340,-0.8562000000000000,-0.8774,-0.7102
235,0.978354996762401,-0.020922914930175000,-0.8335000000000000,-0.8395,-0.5345
236,0.9792799126103210,-0.020108686880841100,-0.8110000000000000,-1.1027,-0.48670000000000000
237,0.979425852447064,-0.019964247556505100,-0.43190000000000000,-1.1175,-0.37370000000000000
238,0.9772385455073850,-0.024234315734731100,-0.5603000000000000,-1.1898,-0.06979999999999990
239,0.9727545142632810,-0.02784772967323200,-0.40320000000000000,-0.9491000000000000,-0.2172000000000000
240,0.9693732696078680,-0.02692201355202850,-0.25600000000000000,-0.6917,-0.11820000000000000
241,0.9750452565249090,-0.02636454318243240,-0.25750000000000000,-0.7903,-0.22060000000000000
242,0.9806326745626690,-0.026091439920870100,-0.5753999999999860,-0.8877999999999960,-0.5198999999999870
243,0.9826370890467180,-0.022959040243100400,-0.5809000000000000,-0.992,-0.13190000000000000
244,0.9843569863714930,-0.02037775876573570,-0.4700000000000050,-0.9931,-0.023800000000004700
245,0.9850307664594950,-0.022019139277939,-0.5255000000000000,-1.1747,-0.044399999999999900
246,0.9764902599766490,-0.02241711518204490,-0.6222999999999960,-1.3249999999999900,-0.2094999999999930
247,0.9733266996578850,-0.02294529554944860,-0.5406000000000000,-1.2608,-0.07399999999999980
248,0.9732632880035490,-0.02746491894785690,-0.30700000000000000,-0.8184,-0.037899999999999900
249,0.9740873894245230,-0.031989634085034200,-0.21030000000000000,-0.7630000000000000,-0.1523000000000000
250,0.97626576331367,-0.030242867584751200,-0.20980000000000000,-0.8406,0.06960000000000010
251,0.976824434093192,-0.027793000984026200,-0.05130000000000010,-1.0673,-0.21120000000000000
252,0.9738756871306720,-0.027098473811138400,0.058099999999999900,-1.0997,0.010400000000000100
253,0.97474072253012,-0.0259147795934392,-0.35180000000000000,-0.982,-0.06409999999999990
254,0.971992073898834,-0.025522465622817200,-0.5580000000000000,-0.8921,-0.01679999999999990
255,0.9737190936558360,-0.02458917691566440,-0.42740000000000000,-0.6966,-0.03949999999999990
256,0.9767439466076590,-0.024172434603050000,-0.6343,-0.7888,0.1704000000000000
257,0.9796651641692120,-0.029079100171822200,-0.24880000000000000,-0.7502,0.13750000000000000
258,0.9861721362238890,-0.029127086558610800,-0.16940000000000000,-0.8746,0.0423000000000001
259,0.9826685998072740,-0.0263147461773389,-0.24400000000000000,-0.867,0.1549000000000000
260,0.97911183521386,-0.02716946805484040,-0.4897000000000000,-0.8635,-0.1039000000000000
261,0.9774559497483850,-0.02419186123701780,-0.2194000000000000,-1.2604,-0.08829999999999990
262,0.9803383640590830,-0.024570150418338600,-0.34970000000000000,-0.8386,-0.0013999999999999000
263,0.976849612691388,-0.02795496629328060,-0.15190000000000000,-0.8422000000000000,-0.5059000000000000
264,0.9742362602621690,-0.02901502829202640,-0.5047000000000000,-0.8712,-0.21500000000000000
265,0.975905750373471,-0.02777956639627200,-0.31880000000000000,-1.1712,0.010000000000000100
266,0.9773035777151220,-0.023967114488637900,-0.39290000000000000,-1.3098,-0.2902000000000000
267,0.9794900643746850,-0.02415851985132540,-0.3578000000000020,-1.2123000000000000,-0.6061999999999860
268,0.9780562447420880,-0.0237174492308791,-0.5402000000000000,-0.8426,-0.2832000000000000
269,0.9783140527805110,-0.026716333314638500,-0.32960000000000900,-1.001399999999990,-0.19390000000000400
270,0.9793871492303690,-0.028279187010854900,-0.31400000000000000,-0.8401,-0.3134000000000000
271,0.9807431222792700,-0.027007492742170000,-0.7343999999999820,-1.0334999999999900,-0.1889000000000050
272,0.9755333231939550,-0.025581045627202000,-0.7410000000000000,-1.5607000000000000,-0.46990000000000000
273,0.975127174498937,-0.02206790593117960,-0.36500000000001700,-0.9464000000000280,-0.2938000000000080
274,0.9765457889391380,-0.02313372989756960,-0.34930000000000000,-0.9806,-0.35040000000000000
275,0.9787246730025040,-0.026492706948856200,-0.06300000000000010,-0.8086,-0.1657000000000000
276,0.9799671472929090,-0.0256058540990043,-0.23900000000000000,-0.7898,0.2922000000000000
277,0.9798578499691540,-0.02603667121800010,-0.1403000000000000,-1.348,0.001600000000000170
278,0.9795076403766830,-0.02593699718048470,-0.08150000000000010,-0.903,-0.2080000000000000
279,0.9786401541403030,-0.025027986764083600,-0.4302000000000000,-0.6167,-0.2368000000000000
280,0.9767369242095930,-0.022494541622266600,-0.15100000000000000,-0.7981,-0.3355000000000000
281,0.9747448639443640,-0.023146154140302800,-0.33440000000000000,-1.0575000000000000,-0.2674000000000000
282,0.9746026753886390,-0.02566421402823600,-0.6638000000000000,-1.0316,-0.14820000000000000
283,0.9741672767050930,-0.02900609524149430,-0.48670000000000000,-1.136,-0.33170000000000000
284,0.9751933971131840,-0.025521095154818500,-0.16980000000000000,-0.8258,-0.30340000000000000
285,0.9770540024881080,-0.025569411654336600,-0.08050000000000000,-0.6883,-0.14410000000000000
286,0.9790939090923000,-0.02736936631775380,0.14050000000000000,-0.9104000000000000,-0.2104000000000000
287,0.9763957477018150,-0.027718665599363700,0.056899999999999900,-0.8269,-0.3778000000000000
288,0.9756814637822290,-0.026540043113601500,0.014500000000000000,-0.7861000000000000,-0.6210000000000000
289,0.9785437712266680,-0.029848012746452700,-0.10220000000000000,-0.9289000000000000,-0.5255000000000000
290,0.9791217085855010,-0.030697102700718400,-0.40750000000000000,-0.8834000000000000,-0.6737
291,0.9776765650859370,-0.026803182972778700,-0.33080000000000000,-1.0352,-0.3852000000000000
292,0.9760553414570730,-0.025537080613665300,-0.5590000000000000,-1.161,0.02320000000000010
293,0.9766720920701770,-0.0265536877730928,-0.5209000000000000,-0.9160000000000000,-0.06439999999999990
294,0.9758990880983820,-0.02620605906196310,-0.45000000000000300,-0.42270000000002200,-0.49389999999998100
295,0.97281566514559,-0.024230404399055800,-0.3410000000000000,-0.6373000000000000,-0.6270000000000000
296,0.9759044099157210,-0.02208427151983610,-0.5345000000000000,-1.0274,-0.09459999999999990
297,0.9806046049772350,-0.022956319313935000,-0.4988000000000000,-0.9976,-0.35510000000000000
298,0.9754418319507680,-0.023371110960419700,-0.3472000000000070,-0.5544000000000200,0.21869999999997500
299,0.976856104908404,-0.024137492670789800,-0.341899999999997,-0.6970000000000000,-0.30959999999999900
300,0.9758273736087250,-0.0256896327084173,-0.2730000000000000,-0.7019000000000000,-0.2933000000000000
301,0.9755075643976280,-0.025007639815839300,-0.27720000000000000,-0.6773,0.09860000000000010
302,0.9752494262464760,-0.024148306363539100,-0.3112999999999990,-0.30180000000001700,-0.27279999999998300
303,0.9758522821146880,-0.02252430178501330,-0.37509999999999200,-0.6344000000000000,-0.5081000000000100
304,0.9767791286219050,-0.021808287274451600,-0.19510000000000000,-0.6412000000000000,-0.7409
305,0.9774391840230870,-0.027524179184533000,-0.01730000000000010,-0.8018000000000000,-0.6080000000000000
306,0.9752670222553070,-0.02875049795801830,0.071299999999996,-0.914099999999995,-0.2822000000000140
307,0.9776795661107520,-0.025510581564550700,-0.16150000000000500,-0.5514000000000080,-0.36800000000000500
308,0.9794439886403620,-0.027595463527300400,-0.27970000000000000,-0.7246000000000000,-0.4797000000000000
309,0.977655928038627,-0.025173366409528400,-0.325699999999998,-0.5106000000000100,-0.30570000000000800
310,0.9774521684571190,-0.025214900592965000,-0.3932,-0.27740000000000000,-0.31540000000000000
311,0.9745465262143550,-0.023055783279713300,-0.41700000000000000,-0.6089,-0.2983000000000000
312,0.975439961311967,-0.022406271479047400,-0.48520000000000000,-0.6524,-0.08539999999999990
313,0.9780271948218810,-0.026577455889625800,-0.1849000000000130,-0.7060999999999980,-0.18409999999999600
314,0.9762807484309120,-0.023183566916327200,-0.08860000000000000,-0.49460000000000000,-0.15320000000000000
315,0.9759397719914550,-0.0253399332901654,0.21030000000000000,-0.7003,-0.14090000000000000
316,0.9785051580407170,-0.026337343894194300,-0.12250000000000000,-0.4616,-0.3404000000000000
317,0.9814389398928280,-0.025189361871791100,-0.43910000000000000,-0.4699,-0.010399999999999900
318,0.9794993375413620,-0.02762296291802000,-0.44650000000000000,-0.7731,-0.0906999999999999
319,0.9749638987421800,-0.0251556803699532,-0.4321000000000010,-0.6523000000000060,-0.5301999999999800
320,0.9754416118756150,-0.025240729413204400,-0.33310000000000000,-0.6567000000000000,-0.5086000000000000
321,0.9779487980503030,-0.025915229747161400,-0.017500000000000000,-0.5264,0.19010000000000000
322,0.9766580872877080,-0.0266083364349702,-0.011900000000000000,-0.7674,-0.03689999999999990
323,0.9770593343088620,-0.027878640228824300,-0.33209999999998600,-0.965699999999991,-0.3444999999999860
324,0.9793784162481580,-0.026100212916745400,-0.4173999999999960,-1.1104999999999900,-0.4248999999999960
325,0.9829430735368350,-0.026349738126679400,-0.36390000000000000,-0.6993000000000000,-0.4616000000000000
326,0.9810854391764770,-0.026756857153054400,-0.6204000000000000,-1.1631,-0.17930000000000000
327,0.9786827987029210,-0.02457995376606710,-0.4962000000000060,-1.5028999999999800,-0.22299999999999800
328,0.9777948954943840,-0.02280521771451010,-0.3109000000000060,-1.6030000000000100,0.048800000000006600
329,0.9752376622292020,-0.022127326222512300,-0.4468000000000000,-1.7285,0.19230000000000000
330,0.9745786972003690,-0.02157865885903960,-0.3659000000000000,-1.5066,0.13620000000000000
331,0.9736362953811960,-0.02598435335206200,-0.3409000000000010,-1.2281000000000100,0.043500000000004300
332,0.9751662578454420,-0.028394956544793700,-0.420499999999997,-0.9743000000000120,-0.21589999999998800
333,0.9804567945016900,-0.02922735079767310,-0.35110000000000000,-1.2511,0.062200000000000100
334,0.9825836608015990,-0.027381240372604400,-0.4128999999999970,-0.826600000000019,-0.2638999999999850
335,0.9793466253919540,-0.025960665262857400,-0.3723000000000000,-1.1013,-0.035299999999999900
336,0.9772026832608490,-0.021704341778283200,-0.5306000000000000,-1.1372,-0.3011000000000000
337,0.9769716143535260,-0.021302134429188400,-0.3557000000000000,-1.2402,-0.15380000000000000
338,0.976307547582508,-0.024246259813493800,-0.37889999999999900,-1.2217000000000000,-0.1489000000000000
339,0.9738154365558070,-0.02207959992454110,-0.26770000000000000,-1.1424,-0.015399999999999900
340,0.9763445102048100,-0.022710915511413200,-0.15360000000000000,-0.9987,0.3135000000000000
341,0.9808828499946470,-0.024921380359246100,0.0004999999999999400,-0.9767000000000000,-0.2796000000000000
342,0.9778201541199090,-0.029022910983873200,-0.3166000000000000,-1.2767,0.11960000000000000
343,0.9791701251191790,-0.027463598496938400,-0.5625000000000000,-1.3445,-0.6175000000000000
344,0.9803782676857030,-0.026145698449521600,-0.49070000000000300,-1.2341000000000000,-0.3405000000000120
345,0.9755648739681750,-0.029076429259737100,-0.2169000000000000,-1.1108,-0.2777000000000000
346,0.9740373423340290,-0.026681031259400600,-0.33270000000000000,-1.2689,-0.2597000000000000
347,0.9729889543218120,-0.02335229453483100,-0.4615000000000000,-1.0388,-0.09739999999999990
348,0.9752150745157620,-0.02468823074138470,-0.32350000000000600,-0.9933000000000020,-0.1324999999999980
349,0.9780043870332890,-0.02679087877103800,-0.47419999999999300,-1.3848999999999800,-0.06670000000000280
350,0.9789471789856880,-0.02578161411899070,-0.5596000000000000,-1.1889,-0.3518000000000000
351,0.9759813862022200,-0.025607924806126500,-0.42690000000000000,-1.0323,-0.6324000000000000
352,0.9766105210443940,-0.024160690592608200,-0.5472999999999950,-0.9135000000000050,-0.31360000000001400
353,0.9753440885725500,-0.024964074938944500,-0.41200000000000700,-0.9840000000000010,-0.10590000000001000
354,0.9727668784855180,-0.02479610758006050,-0.5653000000000000,-1.0176,-0.3267000000000000
355,0.977802778186231,-0.022898739651155100,-0.6424000000000000,-1.0205,-0.43740000000000000
356,0.9790891974833400,-0.024514161298710500,-0.5940000000000020,-1.2765999999999900,-0.45719999999999900
357,0.9784650443423600,-0.025443588687268400,-0.4341000000000000,-1.118099999999990,-0.35380000000000200
358,0.9803350729352020,-0.02552000478246910,-0.42960000000000000,-0.9138,-0.4091000000000000
359,0.9781135142989710,-0.025140015020419900,-0.2088000000000100,-0.9123000000000000,-0.48549999999999700
360,0.972430803719925,-0.026137345597120400,-0.25560000000000000,-0.8742,-0.3743000000000000
361,0.9716107636858660,-0.025684280880830900,-0.11440000000000000,-0.48740000000000000,-0.6405000000000000
362,0.973897844697221,-0.02951040745820440,-0.36160000000000000,-0.4536,-0.3918
363,0.975959858850882,-0.02792169493150070,-0.2673000000000040,-0.4282000000000010,-0.2629000000000060
364,0.9774697044454530,-0.0264830136387044,-0.26810000000000000,-0.6026000000000000,-0.5834000000000000
365,0.9778008675337660,-0.027221975985683200,-0.386,-0.3050000000000000,-0.6211
366,0.9789200397179470,-0.022870750093049200,-0.41940000000000000,-0.8882,-0.07349999999999990
367,0.9819628488015790,-0.02298327852018790,-0.48730000000000000,-0.7887000000000000,-0.6060000000000000
368,0.9803871807294030,-0.02298519917606940,-0.4898,-0.7099000000000000,-0.5352
369,0.9816575645505850,-0.022925208690021600,-0.37990000000000500,-0.821599999999995,-0.0034000000000235200
370,0.9832534995436770,-0.022952728087573300,-0.2710000000000000,-0.6316,0.06270000000000010
371,0.9780185118567500,-0.023210746197733200,-0.6937,-0.8059,-0.30070000000000000
372,0.9734255534152850,-0.024711048533393200,-0.7160000000000000,-0.8738,-0.2214000000000000
373,0.9763436699178620,-0.024054884461054600,-0.5752000000000060,-1.1074999999999900,-0.2542999999999980
374,0.9761435315729630,-0.022682025645862900,-0.3571000000000100,-1.125700000000000,0.023899999999987800
375,0.9745416045336580,-0.023425309468574900,-0.33970000000000000,-1.0179,-0.10070000000000000
376,0.9757300403705650,-0.024099799799116000,-0.44220000000000000,-0.7407,-0.2713000000000000
377,0.9747995226096580,-0.023714358175319900,-0.6177999999999920,-0.4095000000000150,-0.38889999999999500
378,0.9751247336654210,-0.02477990204606070,-0.6232000000000070,-0.7388000000000020,-0.4440999999999830
379,0.9772299025559190,-0.026479792538736500,-0.7692,-0.7725,-0.07239999999999990
380,0.9769087728939040,-0.023851374964947300,-0.7815,-0.6247,-0.13420000000000000
381,0.9764105227473200,-0.022353673517460200,-1.056499999999990,-0.6484999999999990,0.06129999999999140
382,0.9761170425272650,-0.021611039916791200,-0.876599999999998,-0.7788000000000000,-0.2763999999999950
383,0.9778589073536840,-0.020573555628068800,-0.8325,-0.7869000000000000,-0.16750000000000000
384,0.9795245361463910,-0.022219747783391900,-0.6879000000000070,-0.8437999999999980,0.040999999999990900
385,0.9796243302248990,-0.019125371090025700,-0.5135000000000000,-0.8586,-0.013099999999999900
386,0.9777231910081430,-0.022329285189131900,-0.43590000000000000,-0.718,0.2591000000000000
387,0.9768871655152370,-0.022888416125792200,-0.17860000000000000,-0.6018,-0.10290000000000000
388,0.9729605246134000,-0.024062577087996400,-0.28349999999999500,-0.32900000000001200,-0.016500000000003800
389,0.9731717867569460,-0.027265510852329800,-0.42050000000000000,-0.4314,0.03790000000000010
390,0.9753120776411930,-0.027549957987692100,-0.41770000000000000,-0.6831,-0.1316000000000000
391,0.9750363134709610,-0.026091700009687400,-0.4881,-0.7051,-0.2075000000000000
392,0.9770759899965840,-0.023825426103715500,-0.556499999999997,-0.35330000000001600,-0.3469999999999940
393,0.9745534485782610,-0.02897584491136120,-0.40380000000000000,-0.8331,-0.21260000000000000
394,0.9749763730019940,-0.029230061723422400,-0.33080000000000300,-0.8329,-0.11520000000000400
395,0.9786331817593170,-0.02647909229961310,-0.2917,-0.2598000000000000,0.31650000000000000
396,0.9802014673104480,-0.02644734145707260,-0.5574,-0.4569,-0.015299999999999900
397,0.9789054647407630,-0.02599647749231390,-0.8595,-0.8097000000000000,-0.2655000000000000
398,0.9772101858228860,-0.024802279687763,-0.701700000000007,-0.5667000000000110,-0.06690000000000880
399,0.9768418300337020,-0.02441329685468540,-0.7131999999999990,-0.5155000000000020,-0.40049999999998500
400,0.9769285596508490,-0.024087495597375300,-0.7641000000000000,-0.8879000000000000,-0.4693000000000000
401,0.9768235137789160,-0.022750298960399400,-0.8972,-0.9368,-0.06049999999999990
402,0.9772746678427390,-0.02292604897696980,-0.7879000000000000,-0.9045000000000000,-0.41290000000000000
403,0.978477898731983,-0.023389797341599900,-0.6336000000000000,-1.0442,-0.005799999999999870
404,0.978831049328772,-0.024180527366633900,-0.3332000000000000,-1.4023,-0.002599999999999830
405,0.9792992892272080,-0.02322107972651220,-0.3089000000000000,-1.2726,-0.02269999999999990
406,0.9800196552237510,-0.023827936961143800,-0.4763000000000000,-1.4659,-0.34860000000000000
407,0.9793375522935970,-0.025363561358873900,-0.3614000000000000,-1.3188,-0.19200000000000000
408,0.9785179324030120,-0.02713338573315050,-0.3684000000000000,-1.4568,-0.07899999999999980
409,0.9766117314577360,-0.026843586770201900,-0.3290000000000040,-1.377500000000010,-0.20699999999998800
410,0.9767460073113650,-0.023195571015586400,-0.4390000000000000,-1.2221,0.13760000000000000
411,0.977929371416335,-0.024688550850698300,-0.4274000000000000,-1.3523,-0.024199999999999800
412,0.9753389068030370,-0.024491403527198400,-0.7556000000000000,-1.0842,0.17480000000000000
413,0.9766898381302480,-0.02373435500400250,-0.913099999999986,-1.3744999999999700,-0.3343999999999550
414,0.9762628323127670,-0.02443302359113460,-0.8060000000000000,-1.7404,0.2493000000000000
415,0.9767637133577730,-0.025079864479715300,-0.3525000000000000,-1.6829000000000000,-0.2029000000000000
416,0.9785090993866410,-0.024508869491620500,-0.49350000000000000,-1.5390000000000000,-0.1309000000000000
417,0.9791245695624910,-0.023319133210627600,-0.4333000000000060,-1.5131000000000000,-0.24079999999999000
418,0.9777957657915810,-0.026503320573284500,-0.6609000000000000,-1.3444,-0.3245000000000000
419,0.9768577854823000,-0.025668985657691500,-0.7384000000000000,-1.6055000000000000,-0.0774999999999998
420,0.9799799516654520,-0.026157422453131300,-1.0545,-1.5221,0.028000000000000200
421,0.9821040270122830,-0.028407140705541700,-0.9078000000000000,-1.6383,0.0976000000000002
422,0.9783978513967560,-0.02648779527157600,-0.5389000000000000,-1.771,-0.3122000000000000
423,0.9773202734165080,-0.023491912212631300,-0.5742000000000000,-1.6908,-0.08569999999999980
424,0.9768236738335720,-0.02358743483248620,-0.5017000000000000,-1.8736,-0.12380000000000000
425,0.9730560972503350,-0.026416871051786300,-0.49850000000000000,-1.7908000000000000,-0.10920000000000000
426,0.9721823688823400,-0.025665404434745900,-0.4132000000000000,-1.5527,-0.00779999999999981
427,0.9738247797463970,-0.02634700719409790,-0.6287000000000000,-1.5384,0.1391000000000000
428,0.9772617834428680,-0.02752283872678240,-0.4782000000000000,-1.6061,-0.021699999999999800
429,0.9820343232092510,-0.027470981017982700,-0.4245000000000000,-1.4519,-0.17940000000000000
430,0.9820023522915570,-0.02643225630567020,-0.5151000000000000,-1.3850000000000000,0.1742000000000000
431,0.9795492045703680,-0.024707727399264800,-0.6968000000000000,-1.3136,-0.017599999999999800
432,0.9753043049869220,-0.024167763007755000,-0.7052000000000000,-1.2003,-0.2969000000000000
433,0.9746439094695950,-0.021945194026502500,-0.5021000000000000,-1.3298,-0.09549999999999990
434,0.9729479503194260,-0.02332022358297680,-0.21360000000002600,-1.4264999999999900,0.006599999999991110
435,0.9711106729107290,-0.026219763741950700,-0.06910000000000010,-1.2515,-0.015999999999999800
436,0.9761561958976820,-0.026952083820672800,-0.6990000000000000,-1.3662,-0.15940000000000000
437,0.9766030584960210,-0.027017516165051300,-0.3830000000000000,-1.4078,-0.1255000000000000
438,0.9752694430819910,-0.025770200221278600,-0.18640000000001800,-1.2893000000000100,0.20199999999997100
439,0.9747031797096870,-0.02517818805606410,-0.4898000000000000,-0.8446,0.13830000000000000
440,0.9722926065272040,-0.02631135501929820,-0.27660000000000000,-0.7629,0.34350000000000000
441,0.9744540046193150,-0.028282578168895600,-0.43140000000000000,-0.6324,-0.04159999999999990
442,0.9740333409676090,-0.027112718675592700,-0.3147000000000100,-0.6804999999999960,-0.052599999999998900
443,0.9763330763002660,-0.02346199199522780,-0.33020000000000000,-0.7132,0.1671000000000000
444,0.9805690128229310,-0.022493201164516000,-0.36460000000000000,-1.0632,0.3571000000000000
445,0.9833344771965960,-0.02152512057634370,-0.35950000000000000,-0.9637,-0.004599999999999880
446,0.9822345015678140,-0.023734104918601200,-0.5418000000000000,-0.9967,-0.035399999999999900
447,0.9766155927763310,-0.024837581743001000,-0.6252000000000000,-1.2872,0.05930000000000020
448,0.9791853303115740,-0.026287516878852700,-0.5173000000000000,-1.2901,0.2620000000000000
449,0.976476535289829,-0.025539801542830700,-0.5883000000000000,-1.2390000000000000,-0.04759999999999990
450,0.9715660084024620,-0.026651791274288400,-0.8251000000000000,-1.4037,-0.40920000000000000
451,0.9730299583241990,-0.02653064990593120,-0.91,-1.1244,-0.2878000000000000
452,0.9748826610004440,-0.024338811418782200,-0.8285000000000000,-1.0522,0.13290000000000000
453,0.974012493848562,-0.022704323260236700,-0.5993000000000000,-1.1419,-0.09489999999999990
454,0.9761332780715130,-0.026388611401447000,-0.4793000000000000,-1.2715000000000000,0.19050000000000000
455,0.9776775854343740,-0.03188416806962630,-0.5100000000000000,-1.2553,-0.35640000000000000
456,0.977061965207283,-0.029844681608908300,-0.7712000000000000,-1.2579,-0.17270000000000000
457,0.9787193811954130,-0.029936913104883000,-0.8392000000000000,-0.8279000000000000,-0.3940000000000000
458,0.9742159933412530,-0.0252627069182647,-0.9171000000000000,-0.5747000000000000,-0.2573
459,0.9733139853160870,-0.023012928645358200,-1.0650999999999900,-0.8527999999999750,0.11229999999996700
460,0.9782876837758050,-0.024273289043659200,-1.1086,-0.9530000000000000,0.19310000000000000
461,0.9780418698332260,-0.02292264781551300,-1.0156,-0.6469000000000000,-0.002599999999999920
462,0.9797155513758520,-0.021463669591552700,-0.8459000000000000,-0.8333000000000000,0.14250000000000000
463,0.979425622368495,-0.023616864882503100,-0.7738000000000070,-0.6314000000000180,-0.06999999999998110
464,0.9776418832424940,-0.025776152253827800,-0.48520000000000000,-0.7728,0.1410000000000000
465,0.977006376224297,-0.025329709798963,-0.6581000000000000,-0.8179,0.0111000000000001
466,0.9712365358914620,-0.025303070702023700,-0.8060000000000000,-1.0932,0.22500000000000000
467,0.9731269714530450,-0.025851287911774200,-0.760800000000004,-0.6752000000000370,0.102000000000011
468,0.9760344143106970,-0.02313685096337690,-0.5418000000000000,-0.8518,0.0794000000000001
469,0.9745512078130660,-0.025415038937863600,-0.4862000000000000,-0.8042,0.00040000000000009800
470,0.9756686594096860,-0.029700092233331500,-0.23980000000000000,-0.7839,-0.05659999999999990
471,0.9756385091137140,-0.028139069162252200,-0.5799,-0.7326,0.1208000000000000
472,0.9777375759204220,-0.02690712846894710,-0.61,-0.3813000000000000,0.37520000000000000
473,0.9783863574717160,-0.024951370600561900,-0.571,-0.7888,-0.1382000000000000
474,0.9787132691082070,-0.02555279598027870,-0.35780000000000000,-0.7187000000000000,-0.6590000000000000
475,0.9803261398846700,-0.02578043371589690,-0.5549,-0.6982,0.19980000000000000
476,0.9743440070564360,-0.02656051010283840,-0.6934,-0.7666000000000000,0.2823000000000000
477,0.9737023679442010,-0.026703288860110300,-0.35580000000000000,-0.7119,0.30830000000000000
478,0.9763292149816710,-0.027722096771068700,-0.17090000000000000,-0.7194,-0.24480000000000000
479,0.9763492518240170,-0.026640117287758900,-0.4917,-0.4818,-0.26850000000000000
480,0.9770378569746040,-0.026192854552778000,-0.5894,-0.7418,0.10800000000000000
481,0.9769881900139190,-0.027723117119505700,-0.6487,-0.604,0.06970000000000010
482,0.9801962155170220,-0.026698837339968300,-0.5504,-0.7003,0.015100000000000100
483,0.9782314745810240,-0.026529899649727500,-0.4676000000000000,-0.993,-0.20260000000000000
484,0.9750149361708640,-0.02932337358833020,-0.5604999999999920,-0.9852000000000010,-0.5570999999999680
485,0.9743458977020700,-0.029614012838227200,-0.4403000000000000,-0.8763,-0.3320000000000000
486,0.9782520716146700,-0.026815337123278600,-0.42300000000000000,-0.6977,-0.2567000000000000
487,0.9780184618396700,-0.02692924602183220,-0.34930000000000000,-0.8398000000000000,-0.49180000000000000
488,0.9792322163225980,-0.027131164974787600,-0.4934999999999870,-0.7810000000000050,-0.12680000000003200
489,0.9789325539914240,-0.02895683842086750,-0.5131000000000000,-0.9496000000000000,-0.3405000000000000
490,0.9764038304619830,-0.02691666172444210,-0.5875,-0.49960000000000000,-0.5296000000000000
491,0.9771125824924920,-0.02627237170695400,-0.4782,-0.663,-0.21180000000000000
492,0.9763308155282390,-0.027075325906400200,-0.5313999999999950,-0.8193999999999860,-0.0926000000000105
493,0.9756437509037240,-0.025911268394405900,-0.42710000000000000,-0.6363,-0.15160000000000000
494,0.9770691676668390,-0.02392040853910360,-0.5382,-0.4413,-0.39370000000000000
495,0.9783862474341390,-0.024862230160146500,-0.8381000000000000,-0.9271,-0.6881000000000000
496,0.9801715570964600,-0.027534922853370000,-0.6007000000000000,-1.0197,-0.7914000000000000
497,0.9803605516358800,-0.025953982980936500,-0.5353,-0.7455000000000000,-0.6668
498,0.9799637961485320,-0.026491336480857400,-0.4505000000000000,-1.0488,-0.42890000000000000
499,0.9823085268465790,-0.0268268910688156,-0.20890000000000000,-0.7701000000000000,-0.4228000000000000
500,0.9774903815064270,-0.023000474392376700,-0.3330000000000000,-1.1333,-0.04929999999999990
501,0.9756445811872560,-0.02459781986713100,0.07149999999999990,-1.0409,-0.13920000000000000
502,0.9765675163587970,-0.027147090413138100,-0.25070000000000000,-1.0227,-0.4597000000000000
503,0.9761974199752210,-0.028355613109471700,-0.18280000000000000,-0.7624,-0.23460000000000000
504,0.9777718576272230,-0.026211270841724800,-0.30090000000000000,-0.7675000000000000,-0.4302000000000000
505,0.9771648003242700,-0.027302343430223400,-0.40290000000000000,-0.9526,-0.3058000000000000
506,0.9776057509037240,-0.026378357899996500,-0.36750000000000000,-0.7883000000000000,0.0067000000000001000
507,0.9767878816109480,-0.023599448935161400,-0.5122,-0.6432,-0.17780000000000000
508,0.9757316509205490,-0.026838064884542700,-0.6287,-0.6111,-0.08679999999999990
509,0.9759319493201040,-0.028948935722188400,-0.527900000000009,-0.8002999999999830,-0.03140000000000480
510,0.9762608616398060,-0.02626404886480100,-0.34590000000000000,-0.918,-0.2595000000000000
511,0.9782937158356830,-0.02199367058067750,-0.491,-0.7043000000000000,-0.41910000000000000
512,0.9783821160233110,-0.023362958176339600,-0.19580000000000000,-0.47720000000000000,-0.25160000000000000
513,0.9777699169645090,-0.028092043103404000,-0.12510000000000600,-0.34390000000001200,0.15149999999996400
514,0.9778365397153970,-0.029964432502434600,-0.24680000000000000,-0.47750000000000000,-0.16200000000000000
515,0.9783367605349430,-0.02678887808782820,-0.6206,-0.7669000000000000,-0.4779000000000000
516,0.9796557909683740,-0.024966695833949500,-0.39590000000000000,-0.8495,-0.07529999999999990
517,0.979249172112801,-0.02195298668760520,-0.5830999999999830,-0.8295000000000020,0.0004999999999933690
518,0.9788631602942900,-0.02495043027945330,-0.5744000000000000,-0.8882,-0.17210000000000000
519,0.9780301858432800,-0.02747365193006790,-0.37400000000000000,-0.8693,0.006500000000000110
520,0.9744869858820290,-0.025308932703828600,-0.3748000000000000,-0.7758,-0.20170000000000000
521,0.971764456170048,-0.026654392162461200,-0.14360000000000000,-0.3568,-0.09520000000000000
522,0.9738897019165570,-0.02730218337556660,-0.4611,-0.8008,-0.11590000000000000
523,0.9749622281717000,-0.028565764873835700,-0.4921000000000000,-0.8416000000000000,-0.4192000000000000
524,0.9763852141047150,-0.02910423875635420,-0.4192000000000000,-0.8387,-0.19500000000000000
525,0.9800827167585260,-0.02684451708789450,-0.41300000000000000,-0.7588,-0.2558000000000000
526,0.9806390167284450,-0.026920853155766800,-0.3400000000000000,-0.8025000000000000,-0.6034000000000000
527,0.9822419741196030,-0.02704443535764000,-0.5274,-0.7493000000000000,-0.4702000000000000
528,0.9766091805866430,-0.025083255637756100,-0.6362,-0.42590000000000000,0.12450000000000000
529,0.9706391018747480,-0.023852555368041100,-0.527,-0.4115,-0.01350000000000000
530,0.9733176165561130,-0.02250046364456780,-0.9207,-0.4776000000000000,-0.2837
531,0.9768013462089500,-0.024125928721836800,-0.7758,-0.40980000000000000,0.14740000000000000
532,0.9798680834637720,-0.026376377223618700,-0.4555,-0.6873,-0.1331000000000000
533,0.9810815478476340,-0.02579848988186590,-0.3466000000000000,-0.7354,-0.1587000000000000
534,0.9802318276781570,-0.02520504722815650,-0.47629999999998800,-0.6188000000000100,-0.20119999999999600
535,0.9786476066852600,-0.026086788332407100,-0.49120000000000000,-0.9084,-0.2104000000000000
536,0.9721167264662250,-0.026078805606399800,-0.28020000000000000,-0.8922,-0.05229999999999990
537,0.9705938564239570,-0.02409511820040490,-0.4252000000000000,-0.6206,0.13090000000000000
538,0.9736381460131650,-0.027703610458209200,-0.2085000000000190,-0.7049999999999930,-0.12009999999997800
539,0.9740008398688650,-0.028560333018920900,-0.10830000000000000,-0.5838,-0.23950000000000000
540,0.9789410468916500,-0.026694595891563400,-0.35370000000000000,-0.6315,-0.2858000000000000
541,0.9801915239148950,-0.02935966598175730,-0.6972000000000000,-0.8271000000000000,-0.4881000000000000
542,0.9776246073429770,-0.025743271025274000,-0.7583999999999950,-0.8264000000000000,-0.13800000000003100
543,0.979516913543361,-0.026995888779552700,-0.8457,-0.6072000000000000,-0.09279999999999990
544,0.9778284769620620,-0.02624085094298260,-0.7743,-0.6552,-0.12480000000000000
545,0.9783241862409690,-0.028584591302840500,-0.5338,-0.7167,-0.10090000000000000
546,0.9810553989180810,-0.028614411486083500,-0.2762000000000230,-0.6252000000000080,-0.290899999999983
547,0.9792126496408050,-0.028121183054356000,-0.6964000000000000,-0.9071000000000000,0.06850000000000010
548,0.9800879085314560,-0.025681199828687700,-0.9624000000000000,-1.2611,-0.10420000000000000
549,0.9759017089933870,-0.025275971447946100,-0.6386000000000000,-0.9143,-0.5185000000000000
550,0.9793855086701370,-0.022461430315143300,-0.7968000000000000,-0.8481000000000000,-0.46310000000000000
551,0.9800539469339690,-0.024411856362774300,-0.44460000000000000,-1.0648,-0.2725000000000000
552,0.9761901875054170,-0.0266039749455727,-0.4992,-0.669,-0.12380000000000000
553,0.9753373262633010,-0.02768608447329110,-0.5098000000000000,-0.8311,0.09620000000000010
554,0.9743073145263670,-0.02743864997731140,-0.6267,-0.7833,0.0752000000000001
555,0.9736205299975020,-0.025164373338499900,-0.5248,-0.48100000000000000,-0.16390000000000000
556,0.9757985037500070,-0.02748953735475420,-0.5536,-0.6974,-0.3664000000000000
557,0.9775161302993380,-0.027360853410695900,-0.4318000000000000,-0.8429000000000000,0.020200000000000100
558,0.9745466162450990,-0.025531438687013500,-0.4953000000000000,-0.7813,-0.05589999999999990
559,0.9757851391861650,-0.025302010339922500,-0.28000000000001900,-0.4929000000000260,-0.001100000000004810
560,0.9766508348110720,-0.025963246144198100,-0.5856,-0.14450000000000000,0.14620000000000000
561,0.9752998634701960,-0.027059080358736200,-0.5725,-0.5516,0.12270000000000000
562,0.9787523224444640,-0.02757119523996480,-0.17540000000000000,-0.7046,-0.1644000000000000
563,0.9789130573335440,-0.026471169594102100,-0.3582999999999840,-0.7219999999999990,-0.44109999999997500
564,0.9770039053805330,-0.027626764216118700,-0.5327000000000000,-0.7570000000000000,-0.4595000000000000
565,0.9768419600781100,-0.028436010564260000,-0.5750000000000000,-0.661,-0.1462000000000000
566,0.9770519517878180,-0.028518988900389100,-0.4977000000000000,-0.8873,0.18840000000000000
567,0.9760689761131480,-0.02720550035945010,-0.6010999999999910,-1.2020999999999700,-0.20009999999996500
568,0.9770143589503040,-0.029863888167723000,-0.5149000000000000,-1.0002,-0.19820000000000000
569,0.9785382893546730,-0.02686503409421160,-0.5667000000000000,-1.2167,-0.018699999999999900
570,0.9748467587402430,-0.02714207870169740,-0.35130000000000000,-1.2063,0.01710000000000020
571,0.9760050342777600,-0.02741889323061400,-0.6307999999999750,-1.049800000000010,-0.2799999999999740
572,0.9800333899139870,-0.025566700728587300,-0.5453000000000000,-1.0439,-0.06909999999999990
573,0.977317182360949,-0.025053605512585900,-0.5183000000000000,-0.8915,-0.30790000000000000
574,0.9798715546491410,-0.0272035296864883,-0.7060000000000000,-0.9602000000000000,-0.10040000000000000
575,0.9777308536248360,-0.024637413387854200,-0.6177000000000000,-1.2988,0.06870000000000020
576,0.9761397502816970,-0.024433413724360600,-0.6282000000000000,-1.5176,-0.07659999999999980
577,0.9770298342349330,-0.025666314745606400,-0.6614000000000000,-1.5537,-0.0009999999999998100
578,0.9770799713561720,-0.025218341768086000,-0.7187000000000000,-1.4481,-0.18310000000000000
579,0.9757629916230320,-0.026413659955234400,-0.6332000000000080,-1.0853000000000300,-0.030600000000013400
580,0.978784813539792,-0.02936271702365240,-0.7433000000000000,-0.8898,-0.04559999999999990
581,0.9783622292322050,-0.0260364011257666,-0.7152999999999940,-1.0501999999999800,-0.08289999999999190
582,0.9750812988329350,-0.02433322951262670,-0.6409000000000000,-0.8498,0.006400000000000100
583,0.9758015247816530,-0.027851320899593700,-0.49010000000000000,-0.91,-0.2105000000000000
584,0.9745108640361390,-0.026975201715162700,-0.6282000000000000,-0.8485,-0.30880000000000000
585,0.974920844039504,-0.027116369922450600,-0.5950000000000000,-1.0682,-0.6151
586,0.9778151023948040,-0.025962005720608000,-0.8285000000000000,-1.0449,-0.2039000000000000
587,0.980759677932831,-0.02640590730779630,-0.571100000000023,-1.212699999999990,-0.31459999999999000
588,0.9782775303085160,-0.02845637751933620,-0.3902000000000160,-1.4487999999999800,-0.44749999999998800
589,0.9760254112362530,-0.02688310026359670,-0.0922000000000001,-1.4886,-0.18340000000000000
590,0.9755049134923750,-0.02695393445264190,-0.4782000000000000,-1.0793,-0.41460000000000000
591,0.978657630108141,-0.026983244461666400,-0.7464000000000000,-1.0042,-0.6160000000000000
592,0.9800525564591380,-0.024905885067785700,-0.6421000000000000,-1.2891,-0.3324000000000000
593,0.979955283241474,-0.02461331515859150,-0.5721000000000070,-1.457999999999990,-0.318700000000001
594,0.9784881922470980,-0.027825292011033400,-0.49510000000000000,-1.4136,-0.49280000000000000
595,0.9776829172551280,-0.026604285051470200,-0.41960000000000000,-1.1183,-0.35010000000000000
596,0.9783845468534110,-0.02428388266125560,-0.2640000000000140,-0.7694000000000310,-0.5746999999999800
597,0.9803004010951750,-0.025372694477726900,-0.24700000000000000,-1.0058,-0.5383000000000000
598,0.980551156725283,-0.023881775346321200,-0.5033999999999910,-1.2190000000000200,-0.25699999999997300
599,0.9776682022301190,-0.02469342251431430,-0.40150000000000000,-1.4154,0.043400000000000200
600,0.9767184979172300,-0.025456993264774500,-0.43540000000000000,-1.1724,-0.25780000000000000
601,0.9769387931454680,-0.026416731003961600,-0.3713000000000060,-1.3052999999999900,-0.2839999999999980
602,0.9769004300449190,-0.029340649487847600,-0.6818000000000000,-1.0854,-0.26700000000000000
603,0.9768389590532950,-0.02648220336200440,-0.5022000000000000,-0.9914,-0.4780000000000000
604,0.9771233361647460,-0.025917600556765200,-0.7137999999999810,-1.2089999999999800,-0.18960000000002500
605,0.9757347919931890,-0.026093390586999700,-0.45890000000000000,-1.3892,-0.14480000000000000
606,0.9788381717609990,-0.028871179169237100,-0.6806999999999890,-1.3974000000000100,-0.05790000000002580
607,0.9787397281436580,-0.026609546848312200,-0.5590000000000000,-1.47,-0.34980000000000000
608,0.977586324269756,-0.025846836391632300,-0.4137000000000000,-1.3098,-0.16670000000000000
609,0.9782143487327480,-0.02593692715657240,-0.5596000000000000,-1.227,-0.7980000000000000
610,0.9764817170593430,-0.02521839178516620,-0.9057000000000000,-1.5895,-0.37880000000000000
611,0.9812459840006530,-0.030904713597405900,-0.6563000000000000,-1.4616,-0.5347000000000000
612,0.9813656948805150,-0.02552287576287570,-0.7720999999999900,-1.3338000000000100,-0.679999999999987
613,0.9775280143576050,-0.02586079115702100,-1.0468999999999800,-1.4410999999999900,-0.1390000000000480
614,0.9760248210347060,-0.02605593779731070,-1.0415999999999700,-1.5102000000000100,-0.16020000000001900
615,0.9760676456588130,-0.021638879423656400,-0.6875000000000000,-1.5826,-0.37190000000000000
616,0.9745957930383980,-0.024005537609683300,-0.6534000000000000,-1.678,-0.3306000000000000
617,0.9728759757409520,-0.026773772929593700,-0.3683000000000000,-1.5312,-0.16650000000000000
618,0.9692347823160820,-0.023972916469946700,-0.5538999999999840,-1.1298000000000400,-0.00010000000001464100
619,0.9732898970902400,-0.02523848864800930,-0.35060000000000000,-1.2595,-0.13950000000000000
620,0.9805118733104580,-0.02746227804601980,-0.4974000000000000,-1.2806,-0.14960000000000000
621,0.9829173047370920,-0.026528029010926400,-0.6139999999999900,-1.6123999999999700,-0.26139999999999000
622,0.9814498736265700,-0.027073865407657100,-0.8996,-1.3619000000000000,-0.19400000000000000
623,0.9796119359924130,-0.02690429750220500,-0.6664000000000220,-1.2990000000000000,-0.22299999999998200
624,0.976128266360072,-0.0249727078869951,-0.9114000000000000,-1.3084,-0.023699999999999800
625,0.9731706363641,-0.02356526726252090,-0.9906000000000000,-1.1774,-0.059299999999999800
626,0.9740046311635470,-0.023884056125180400,-0.6804000000000280,-0.9172000000000230,0.07529999999998820
627,0.9774324817343340,-0.026088779012201000,-0.3670000000000000,-1.5132,0.10520000000000000
628,0.9769571594173340,-0.02554867457286640,-0.5697000000000000,-1.5645,-0.031799999999999800
629,0.9787735196830720,-0.026795000178450300,-0.5302000000000040,-1.329300000000020,0.10019999999998800
630,0.9752704934406760,-0.027314287508986300,-0.4097000000000000,-1.3982,0.09740000000000020
631,0.9741445489438290,-0.028357483748272700,-0.6292000000000000,-1.2617999999999800,-0.20999999999998100
632,0.9707097660057210,-0.026162264106499200,-0.6319000000000000,-1.0511,0.0025000000000001300
633,0.9729329952124330,-0.025859130589956900,-0.7027000000000000,-1.1983,-0.3555000000000000
634,0.9732678595646830,-0.02702913013108460,-0.7200000000000000,-0.9538,-0.47950000000000000
635,0.9808870414259710,-0.028796683729918000,-0.7344,-0.6967,0.007500000000000090
636,0.9805742346061090,-0.02958339238170020,-0.6267,-0.7497,-0.1867000000000000
637,0.9833763815064270,-0.02795545646066720,-0.7783999999999870,-0.9722999999999800,-0.1895000000000000
638,0.9834961323999530,-0.02637890808787930,-0.5884000000000170,-1.2297999999999800,-0.06530000000001090
639,0.9830897336195330,-0.02719699745580810,-0.5848999999999910,-1.1991000000000300,0.03329999999999520
640,0.9789598433104070,-0.02660980693712950,-0.48500000000000000,-1.4835,-0.02259999999999980
641,0.9787140993917390,-0.026963187612487500,-0.39090000000000000,-1.5094000000000000,-0.13860000000000000
642,0.9759676815222330,-0.027669508812897400,-0.6211000000000000,-1.266,-0.08409999999999980
643,0.9754408015989150,-0.02574543176314050,-0.6288999999999990,-1.3301999999999900,0.07009999999998650
644,0.9758654566136250,-0.026121610223674800,-0.9157000000000000,-1.1909,-0.07569999999999990
645,0.9769454554205570,-0.025706098331234500,-0.7418000000000000,-1.4461,0.03270000000000020
646,0.9750164766969360,-0.025801971070651100,-0.721200000000002,-1.613699999999990,0.10459999999999400
647,0.978448488688798,-0.02851666810786560,-0.7360000000000000,-1.3471,-0.23430000000000000
648,0.9799756601999660,-0.03004568024758700,-0.8081999999999940,-1.098800000000020,-0.16830000000000600
649,0.9743927336960120,-0.02522890537543410,-0.957,-1.0712,-0.032499999999999900
650,0.9722181410981330,-0.0268989656814509,-0.7403000000000000,-1.1723,-0.4420000000000000
651,0.9762696246322650,-0.02975170986014570,-0.6875000000000050,-1.2068000000000000,-0.22510000000001900
652,0.9754647897906010,-0.02677286261873330,-0.7520000000000000,-0.9097,0.007400000000000110
653,0.9761210438936840,-0.028040305435597300,-0.7816,-0.7815,0.009400000000000100
654,0.9782824319823790,-0.02605335691597050,-0.6442000000000120,-1.3211999999999500,-0.18259999999998300
655,0.9810716544691610,-0.026684662499426500,-0.4928000000000000,-0.9138,-0.3537000000000000
656,0.9826786732472360,-0.027141478496734100,-0.4332000000000250,-1.131199999999990,0.00019999999997316500
657,0.9823889643150310,-0.02373999693065430,-0.7104000000000000,-1.0301,-0.3035000000000000
658,0.9788139234804960,-0.025533299322398600,-0.5055000000000000,-0.9735000000000000,-0.30030000000000000
659,0.9769373326467240,-0.02665539250406620,-0.4500000000000000,-1.161,-0.4245000000000000
660,0.9768170215618990,-0.026045864357349400,-0.5869000000000000,-1.2387,-0.2949000000000000
661,0.9768064879647990,-0.02818899621175430,-0.5089000000000000,-1.0808,-0.1514000000000000
662,0.9714717862266940,-0.026548566024075700,-0.5631999999999950,-1.2150999999999900,-0.46949999999997200
663,0.9758992981701190,-0.028849771858891500,-0.6336999999999940,-1.169900000000000,-0.24800000000002000
664,0.9798044717411150,-0.027028319854384600,-0.3104000000000140,-1.269799999999980,-0.12210000000002700
665,0.9799527123635490,-0.02730836548668510,-0.4710000000000000,-1.0648,-0.42360000000000000
666,0.9785076088776490,-0.024813403486409800,-0.35290000000000000,-1.1206,-0.14420000000000000
667,0.9762253295059990,-0.02682436020455510,-0.4514000000000000,-0.9856,-0.15560000000000000
668,0.975914213263449,-0.025189671977688800,-0.665499999999981,-1.2150999999999800,-0.27249999999999000
669,0.9752642012919810,-0.024966745851029700,-0.4272000000000000,-1.1734,-0.07959999999999990
670,0.9745781170022380,-0.02550117835346430,-0.5618000000000000,-1.2365,-0.18820000000000000
671,0.9773685799126100,-0.02581112419633620,-0.2097000000000310,-0.9297000000000270,-0.14430000000000400
672,0.9772254010186970,-0.02850084270367560,-0.6679000000000000,-0.8896000000000000,-0.5651000000000000
673,0.9773297866651710,-0.024363629894000900,-0.6433000000000020,-0.9842999999999920,0.023799999999947800
674,0.9796982754763350,-0.02476198592791630,-0.5489000000000000,-1.1036,-0.3068000000000000
675,0.9782915550978170,-0.02494691908042000,-0.6311000000000000,-1.1893,-0.20800000000000000
676,0.9780378584633900,-0.0233850057053124,-0.6031000000000030,-1.023500000000020,-0.37159999999998500
677,0.975568595238945,-0.02488634839624140,-0.44840000000000000,-0.9303,-0.15860000000000000
678,0.9748813505529410,-0.026206259130284100,-0.6258000000000000,-1.0598,0.20320000000000000
679,0.974611708473332,-0.027092661826413700,-0.38860000000002100,-0.8830000000000160,-0.12149999999997100
680,0.9776374717360160,-0.027707551804133000,-0.4151000000000000,-0.9539000000000000,-0.2654000000000000
681,0.9757838387420790,-0.02487839568048220,-0.24420000000001400,-1.0718999999999900,0.04779999999997260
682,0.9809291458041230,-0.025605073832552500,-0.39920000000000000,-0.9515,-0.2624000000000000
683,0.9781894402267850,-0.028252427872923000,-0.22010000000000000,-0.6431,0.18800000000000000
684,0.9766493142918330,-0.026853190049609200,-0.43520000000000000,-0.6319,-0.006099999999999920
685,0.9766573070212560,-0.026179039835213900,-0.5756,-0.7285,0.07710000000000010
686,0.9794063757960160,-0.026712471996043600,-0.2508000000000000,-0.9427000000000000,-0.034699999999999900
687,0.9783792550463210,-0.024364710262934100,-0.7648999999999540,-0.82810000000001,-0.21299999999998400
688,0.9782627452595940,-0.027751166698107700,-0.610000000000014,-0.9074999999999930,-0.22599999999999900
689,0.9808307121901970,-0.026657463211188600,-0.31380000000002300,-1.001099999999980,-0.08989999999999530
690,0.9783344197355880,-0.028722018232525900,-0.5724,-0.7952,-0.0386999999999999
691,0.9788020294188130,-0.028563684163297400,-0.5741,-0.7548,-0.3197000000000000
692,0.9764671420821590,-0.029188247444336300,-0.5623000000000000,-0.9097,-0.41000000000000000
693,0.9765891437442960,-0.027863545074006100,-0.32870000000002100,-0.8493000000000060,-0.6838999999999760
694,0.9768216231332820,-0.026548125873769400,-0.15100000000000000,-0.9235000000000000,-0.19330000000000000
695,0.9783975913079390,-0.02599079555199790,-0.43700000000000000,-0.7174,-0.32330000000000000
696,0.9791467771461200,-0.02864447175131140,-0.7477999999999730,-1.2075999999999600,-0.29710000000000200
697,0.9771279577429600,-0.023079861502144000,-0.7863000000000000,-0.9608000000000000,-0.2995000000000000
698,0.9776466248617010,-0.02654706551166780,-0.6263000000000140,-0.7835000000000160,-0.3782999999999930
699,0.9773458521513470,-0.0248597993300465,-0.28880000000000000,-0.7113,-0.11600000000000000
700,0.9755962346774890,-0.027563982776993200,-0.08000000000000000,-0.7052,-0.39340000000000000
701,0.9794044551401340,-0.027039813779425300,-0.06690000000000120,-0.5630000000000130,-0.21050000000001600
702,0.9774332720042010,-0.02594912132073650,-0.37090000000000000,-0.5963000000000000,-0.5967
703,0.9787958773179420,-0.028850472098015200,-0.29430000000000000,-0.9993000000000000,-0.6868000000000000
704,0.982115140807513,-0.029308318447176200,-0.19420000000000900,-0.7624000000000210,-0.4763000000000190
705,0.9774980741333690,-0.0297105157928549,-0.5273,-0.5481,-0.15450000000000000
706,0.9786750360520670,-0.025249012241693100,-0.7506999999999830,-0.7946000000000470,-0.10070000000000300
707,0.9756141407922180,-0.024272778869440700,-0.5607000000000000,-1.3276,-0.13250000000000000
708,0.9762375136667470,-0.023748579861624600,-0.18010000000000000,-0.9861,-0.25480000000000000
709,0.9779584213365420,-0.02309697734700440,-0.11970000000000000,-0.9608000000000000,-0.2818000000000000
710,0.9764843279509310,-0.026013253221028600,-0.42060000000000000,-1.0487,-0.2061000000000000
711,0.9740121537324160,-0.025552075734323200,-0.07840000000000010,-0.8001,0.06740000000000010
712,0.9756362583451030,-0.026324729586556000,0.0965999999999844,-0.7720000000000030,-0.3118999999999660
713,0.9761677298363860,-0.0247459704588215,-0.16799999999997700,-1.0597999999999700,-0.45429999999998700
714,0.9829562180255240,-0.02502585603646520,-0.1727999999999990,-1.008300000000020,0.03229999999996540
715,0.9813319533581810,-0.026419261868222100,-0.16570000000000000,-1.2436,-0.3586000000000000
716,0.9819444825297120,-0.025389540230353900,-0.24410000000000000,-1.0593,-0.1729000000000000
717,0.9763943572269840,-0.02656945315678650,-0.68,-0.4791,-0.06809999999999990
718,0.9716460057206090,-0.023425609571056700,-0.4360000000000220,-0.4727000000000010,0.2738999999999700
719,0.9683600536064810,-0.028389294611309700,-0.34290000000000000,-0.6966,-0.08229999999999990
720,0.9700379866009290,-0.027965970050934900,-0.13560000000000000,-0.3771,-0.07320000000000000
721,0.975314888601102,-0.027129364359898800,-0.2021999999999940,-0.4216999999999960,-0.264299999999983
722,0.9771023289910420,-0.028212204136988700,-0.33360000000000000,-0.6422,-0.3382000000000000
723,0.9839424248035770,-0.02786302489637140,-0.3813999999999960,-0.49050000000001400,-0.23430000000000900
724,0.9825204792258320,-0.024481150025747900,-0.18170000000000000,-0.3001,0.056000000000000000
725,0.9803965739370740,-0.02769417723687500,-0.5752,-0.042000000000000000,-0.23860000000000000
726,0.9749373696828180,-0.027766001764109100,-0.4641000000000100,-0.027900000000001200,0.10199999999997000
727,0.9728042012307980,-0.026420972452366600,-0.2824,-0.3535,-0.07160000000000000
728,0.9744785229920520,-0.026425073852946800,-0.2859,0.0007000000000000620,0.3607
729,0.9767692352434320,-0.026141066867890700,-0.3356999999999960,-0.4153999999999630,-0.02189999999996600
730,0.9765862227468100,-0.028845790499304100,-0.33120000000000000,-0.6175000000000000,-0.4475000000000000
731,0.9809076684698650,-0.029476085737739100,-0.4953999999999870,-0.6563000000000120,-0.33049999999997100
732,0.983642972544141,-0.027954146013164600,-0.34470000000000000,-0.7865000000000000,-0.006499999999999900
733,0.9826575560359550,-0.023791454502811900,-0.20070000000000000,-0.8601,-0.19890000000000000
734,0.975723938286775,-0.024954151550223600,-0.38050000000000000,-1.0108,-0.06919999999999990
735,0.9756732809879010,-0.02620919013118650,-0.36400000000000000,-0.9329,-0.3395000000000000
736,0.974469519917607,-0.027427496168416400,-0.34540000000000000,-0.7779,-0.0751999999999999
737,0.9728384929410150,-0.025529027863745700,-0.4114999999999940,-0.5591000000000200,-0.12909999999999500
738,0.9747833170756580,-0.026542493950533500,-0.2341000000000160,-0.7155999999999860,0.28809999999996300
739,0.9739917767739240,-0.023357226218943800,-0.5724999999999840,-0.677599999999998,-0.07090000000001410
740,0.9756973592103320,-0.028695559197075500,-0.3889000000000000,-0.6557,-0.22990000000000000
741,0.9750451764975810,-0.02663764644399470,-0.4609,-0.6356,-0.15890000000000000
742,0.9769934418073450,-0.029841430498692300,-0.6633,-0.45280000000000000,-0.2548
743,0.9818773696114370,-0.02843284948478860,-0.5709000000000080,-0.5695999999999900,-0.22540000000000300
744,0.9760576222359320,-0.03115817014984740,-0.6273,-0.6735,0.013400000000000100
745,0.9742807254465080,-0.02763378661418530,-0.968,-0.7716000000000000,-0.11590000000000000
746,0.9787670974899680,-0.030256232148592900,-0.8163000000000140,-0.6480000000000110,-0.5632999999999600
747,0.9753410675409040,-0.024489432854236700,-0.6517,-0.6950000000000000,-0.6513000000000000
748,0.9773473626671700,-0.023201993208690200,-0.4209000000000210,-0.6318000000000060,-0.36180000000002600
749,0.9784816099993370,-0.02341007426593180,-0.5614,-0.6266,-0.13700000000000000
750,0.9825412263107180,-0.024399452126873100,-0.3995000000000000,-0.6783,-0.2325000000000000
751,0.9794853427623100,-0.023424929338765200,-0.35260000000000400,-1.0480999999999700,-0.23070000000000000
752,0.9787482110404680,-0.025824888896820100,-0.4753000000000000,-0.8198,0.006700000000000100
753,0.9780932573814710,-0.02761204919111020,-0.5158000000000000,-0.9611,-0.2382000000000000
754,0.9770300443066700,-0.024575762334742600,-0.44580000000000600,-1.1369999999999800,-0.1643000000000060
755,0.9760813303319690,-0.026873396950028900,-0.6938000000000000,-0.8582,-0.2121000000000000
756,0.9750769373435370,-0.026976862282226600,-0.7669999999999750,-0.5650000000000230,-0.31079999999997600
757,0.9747661112000530,-0.023204404031958000,-0.4891000000000000,-0.8239,-0.036099999999999900
758,0.9766877074026300,-0.028901439502786400,-0.3965000000000000,-1.0623,-0.040499999999999900
759,0.9768628672176540,-0.025701996930654500,-0.5509999999999860,-0.7938000000000240,-0.19859999999998600
760,0.9778192338056320,-0.029595346463879200,-0.5585000000000000,-0.8334,-0.21340000000000000
761,0.9770131385335460,-0.028963580723284800,-0.7087000000000000,-0.9864,-0.1431000000000000
762,0.9770024148715410,-0.025748462798203600,-0.7448999999999970,-1.1389999999999900,-0.28779999999998700
763,0.9757736252542920,-0.02435776789219580,-0.45550000000002600,-1.287899999999990,-0.4150999999999890
764,0.9786798176849380,-0.02544708988288550,-0.4041000000000100,-1.2964999999999700,-0.4275999999999580
765,0.9769802873152400,-0.024171384244364800,-0.5108000000000000,-0.9973,0.03860000000000010
766,0.9795167534887040,-0.028292111424390600,-0.5647000000000000,-1.0209,-0.2922000000000000
767,0.978316853737005,-0.023753911682378800,-0.34910000000000000,-1.2231,-0.46540000000000000
768,0.9761535349890130,-0.027704990929624000,-0.394799999999996,-1.1715000000000000,-0.25990000000001800
769,0.9749073894449180,-0.0268932437274707,-0.4288000000000000,-1.2848,-0.3133000000000000
770,0.9765536616275690,-0.02528006284511030,-0.3700000000000000,-1.4058,-0.32300000000000000
771,0.9779418356727320,-0.027067623276042200,-0.27710000000000800,-1.225500000000020,-0.6315999999999730
772,0.9768415299312200,-0.028255278846497100,-0.29080000000000000,-0.9158000000000000,-0.15710000000000000
773,0.9781197364237530,-0.028416683964452700,0.06469999999996840,-0.9918999999999930,-0.15510000000000000
774,0.9733319614547270,-0.027417292684046100,-0.46850000000000000,-1.0824,-0.41400000000000000
775,0.9754980511489650,-0.02808832183263400,-0.46790000000000000,-0.7942,-0.31220000000000000
776,0.9752956620354560,-0.02941430464021860,-0.4258000000000040,-0.8847999999999920,-0.4383999999999890
777,0.9737611880305710,-0.027408839797484400,-0.35890000000000000,-0.0318,-0.1968
778,0.9761393701518870,-0.029178304048783300,-0.11140000000000000,0.9249,-0.3106000000000000
779,0.9699423539434980,-0.02761453003829050,0.11409999999998000,2.2733999999998800,-0.7488999999999620
780,0.9685541899017510,-0.027330573070314600,-0.006299999999999810,3.179,-1.5990000000000000
781,0.9741193703456330,-0.02530007968062420,-0.4062000000000610,3.0729000000000000,-1.7000000000000100
782,0.9785819442623120,-0.01724762986340910,-1.0981000000000000,3.0345,-1.8596000000000000
783,0.9789343746131450,-0.017399361678045000,-1.1115000000000000,3.3345000000000000,-1.8146000000000000
784,0.9781426742567540,-0.01725357189254240,-0.5046000000000540,3.364900000000000,-2.0924999999999800
785,0.9759056303324790,-0.022237893980105400,-0.34150000000000000,3.3771000000000000,-2.0224000000000000
786,0.9785199730998860,-0.019650440395038100,-0.24440000000000000,3.9752000000000000,-1.7674000000000000
787,0.9796004120571250,-0.02380422886510650,-0.9096999999999410,3.9110000000000100,-1.479300000000030
788,0.9845515628170680,-0.02537364480225140,-1.288199999999970,3.2077000000000600,-1.5618999999999900
789,0.9938441161150850,-0.027001390658380100,-1.287900000000020,2.003399999999910,-1.0890999999999800
790,0.9944331672691490,-0.030564287345831700,-1.4785,1.0243000000000000,-0.8936000000000000
791,0.9965918144218470,-0.03664972545160690,-1.2924,0.44110000000000000,-1.124
792,0.989813769799065,-0.036568037556148200,-1.0524000000000000,-0.2748000000000000,-1.1292
793,0.9811196208491180,-0.03272221425257360,-1.7964,-0.6791000000000000,-1.367
794,0.9693768308239820,-0.029578680772741000,-2.2931,-0.8053000000000000,-2.0254
795,0.9627855499788410,-0.028331975037347200,-2.4668,0.09249999999999990,-2.1586
796,0.9580052775718520,-0.02913014760392180,-3.0720999999999500,-0.07369999999998540,-2.3785999999999800
797,0.9534880649967120,-0.030982060010299200,-2.7026,0.66,-1.9996
798,0.9555195487245900,-0.03314306796918400,-2.193100000000050,0.9327999999999760,-1.349300000000060
799,0.9501127923806810,-0.033019685835632000,-1.9060000000000000,1.2779,-1.1474000000000000
800,0.9494125632606450,-0.03675698207848760,-1.5901000000000000,1.7002000000000000,-0.8058000000000000
801,0.9501793451076570,-0.03659097538914930,-1.505600000000020,1.8460999999999700,-0.4445000000000640
802,0.9563518329398930,-0.031054384708335700,-1.4024,1.9444000000000000,-0.6032000000000000
803,0.9664911954133170,-0.0229553689894103,-1.0907,1.5898000000000000,-0.8730000000000000
804,0.9848747531827890,-0.0074884172066914300,-0.9053,1.2041,-0.5488000000000000
805,1.008256207675400,0.0014478844355615300,0.09890000000000010,0.9285000000000000,-0.25130000000000000
806,1.0162983939877500,0.003906373980921060,2.5173,-1.4306000000000000,-0.07989999999999980
807,1.0241539265600400,0.00019574684525291400,3.9811000000000000,-4.1633,0.5638000000000000
808,1.0222306497835700,-0.016503685815237700,4.3431,-4.5632,0.7729000000000010
809,1.0068741557208700,-0.03155226472852340,4.292000000000010,-4.267000000000050,0.7027000000000130
810,1.0107718167264100,-0.031523754992785600,5.196,-4.5425,0.8501000000000010
811,1.0051023606736200,-0.02982624531312940,5.3982,-5.287,0.8401000000000010
812,1.000754685993690,-0.021379300780592800,5.5181000000000000,-5.9903,1.1219000000000000
813,0.9950319417436130,-0.01613850110894140,6.0822,-6.3409,1.721700000000000
814,0.9918307185634240,-0.010274568644746200,6.662,-6.963300000000000,1.702900000000000
815,0.9874230333906080,-0.007209942110710640,6.783700000000000,-7.460800000000000,1.5278000000000000
816,0.9801881427602700,-0.0030933163312650500,7.3084,-8.0821,1.444000000000000
817,0.9807237856760470,-0.004678057501797300,7.5511,-8.3868,1.4571000000000000
818,0.9783049896855710,-0.004870993387140370,7.769099999999960,-8.416900000000000,1.2847000000000300
819,0.9735415930414570,-0.005844575854139840,8.14,-8.1685,0.736700000000001
820,0.9675611908041990,-0.004912207461263580,8.6592,-7.839900000000000,0.761800000000001
821,0.9666903434200260,-0.005097850856306740,9.1901,-8.134300000000000,0.9922000000000010
822,0.9742119219509210,-0.0011224232943972200,9.6515,-8.1594,1.288700000000000
823,0.9794391469869940,-0.0028570456475963200,10.2678,-8.0313,1.523300000000000
824,0.9841633902606910,-0.001027891012731210,10.5906,-8.7749,1.8268000000000000
825,0.9893498013592820,-0.003624967884037920,10.6158,-9.2118,1.8090000000000000
826,0.9888629351001620,-0.004064257896427400,10.702300000000000,-9.635399999999930,1.3037000000000900
827,0.9867497234631600,-0.0035593754850025700,10.5872,-10.0493,1.0978000000000000
828,0.9859522011186290,-0.009485719261929460,10.5797,-10.166,0.4514000000000010
829,0.9825979256728850,-0.009553492405663560,10.475,-10.3981,0.34850000000000100
830,0.9899139740176310,-0.016127047197565000,10.3622,-10.59,0.7246000000000010
831,0.9941567228666260,-0.016083852447064000,10.3217,-10.7853,1.1068000000000000
832,0.999803061024917,-0.010841682307413900,9.9442,-10.638,1.8771000000000000
833,1.003409222486780,-0.014257468758444600,10.159100000000000,-11.1711,1.8216000000000000
834,0.9994590335435660,-0.018027256096627700,10.032700000000000,-12.434599999999800,2.1356999999999500
835,1.002177281793480,-0.026699407534683200,9.343800000000000,-13.9021,2.008900000000000
836,0.9988739737525050,-0.031015571454064400,8.201600000000000,-14.823000000000000,1.693700000000000
837,0.9946762502791480,-0.03551841912375790,7.233300000000000,-15.5719,1.937900000000000
838,0.9935589187235190,-0.04352444308708890,6.6979,-16.4032,2.249100000000000
839,0.9918140328654540,-0.045850537421035800,6.2544,-17.1072,2.8997000000000000
840,0.9878387053377050,-0.048427077279193300,6.0814000000000000,-17.4569,3.579100000000000
841,0.9875536279871310,-0.05524419524506340,5.746100000000000,-17.0069,4.754300000000000
842,0.9885713055120760,-0.0569432454507911,4.639800000000000,-17.2046,5.898600000000000
843,0.989426347498891,-0.050336769416672600,3.6970000000001700,-17.472200000000000,6.065699999999970
844,0.9931591822181890,-0.044542690806748500,3.369200000000000,-18.213,5.538100000000000
845,0.9971664306465510,-0.038711329465209900,2.9065000000000000,-20.324,5.595100000000000
846,0.998538929338765,-0.052701156827255000,2.2024000000000000,-21.7932,5.208300000000000
847,0.994707791049951,-0.055376640473556300,1.868700000000000,-21.8716,4.8667000000000000
848,0.9920119504519890,-0.04351611024151980,0.5526999999999990,-21.5064,4.447800000000000
849,0.9789988766398310,-0.04198735819061560,-0.6162000000000010,-21.2684,4.597500000000000
850,0.9638832848424290,-0.04017077784972450,-1.2444000000000000,-21.398600000000000,4.621400000000000
851,0.9601649750832350,-0.04001356416309350,-1.0429000000000400,-21.381200000000000,4.897499999999950
852,0.9639261294733680,-0.03850195796729780,-0.7817000000000010,-20.6588,5.301500000000000
853,0.9701377406657730,-0.02899133019940560,-0.9761000000000010,-19.4352,4.762700000000000
854,0.9877494448562970,-0.022582071512698100,-2.0261000000000000,-18.7658,4.281200000000000
855,0.9932381992015620,-0.021803125511770100,-2.1375000000000000,-18.5155,4.233500000000000
856,0.9999565634441940,-0.015570707213982400,-1.8944000000000000,-19.5407,3.473000000000000
857,1.0014914775993800,-0.023953259757409600,-1.8157000000000000,-21.3618,2.3477000000000000
858,0.9976246171118580,-0.024496815375281100,-1.7589000000000000,-22.9767,1.9917000000000000
859,0.9948259213900780,-0.025386189085977300,-1.9115999999999700,-23.382299999999900,1.6163000000000700
860,0.9870887892501520,-0.022746507665716700,-1.8321000000000000,-22.6499,1.453500000000000
861,0.9819815451861750,-0.019432005802185300,-1.0843000000000000,-22.099,1.672400000000000
862,0.9797833945434990,-0.02430969147466270,0.11429999999999900,-21.495,1.7444000000000000
863,0.9842512202536040,-0.02246602188311000,1.2150000000000000,-21.5414,1.8855000000000000
864,0.9931090350935340,-0.027863435036429400,2.194400000000000,-21.8954,2.153600000000000
865,0.9964322999495240,-0.03407598654994320,2.8785000000000000,-22.519200000000000,1.6300000000000000
866,0.995490618376306,-0.03489347571290920,3.2342000000000000,-23.4496,1.6681000000000000
867,0.9963191613140070,-0.046054687135770200,3.554800000000000,-24.6134,1.322400000000000
868,0.999148187393248,-0.05826633727113540,3.6239999999999900,-24.985399999999900,0.9247000000000740
869,1.0022827978259700,-0.061207861767270200,4.2819000000000000,-25.4561,0.7158000000000030
870,0.9995753132517220,-0.07009796763420750,4.221800000000000,-26.919100000000000,1.3804000000000000
871,1.000798100819340,-0.06672398545884690,4.449600000000000,-27.668500000000000,1.7685000000000000
872,1.0181952317356100,-0.0634733454033743,4.080000000000000,-27.0759,2.6760000000000000
873,1.027317166769490,-0.06711958054993300,4.159700000000000,-26.8423,3.237200000000000
874,1.0387961667134000,-0.07393760882666360,3.8076000000000000,-28.1227,4.221500000000000
875,1.0541271920788400,-0.0789969165209323,3.112500000000000,-30.0437,4.805400000000000
876,1.074017374342920,-0.08009879279876400,2.8340000000000500,-32.67599999999950,5.115599999999950
877,1.0774754952506700,-0.0792745213197168,2.580300000000000,-35.2538,4.854900000000000
878,1.0786652015214200,-0.07530695644282200,0.9721999999999980,-37.6706,4.326300000000010
879,1.070080519953300,-0.07529927381929620,-0.33770000000000300,-41.6042,4.955300000000010
880,1.0650098383749800,-0.07053892821707730,-0.8981000000000030,-44.3716,5.6314000000000100
881,1.059062897564410,-0.06565546057012340,-1.211400000000000,-46.1813,6.973200000000010
882,1.060744991979930,-0.05799975623683940,-1.8100000000000000,-46.6218,7.687900000000010
883,1.0673556194317100,-0.049875872025615300,-2.0616000000000000,-46.1824,8.945100000000010
884,1.0809401984061800,-0.05449864064690720,-2.8223999999998700,-45.77500000000010,9.94649999999983
885,1.0909419438850200,-0.05755327376831040,-4.415100000000000,-47.0887,11.367300000000000
886,1.0968165099804700,-0.06134170747401010,-5.657100000000000,-49.7798,12.389500000000000
887,1.1028365557555300,-0.0672380209959569,-6.603900000000000,-54.093900000000000,13.354100000000000
888,1.1019325870608200,-0.07023823553405100,-7.428900000000000,-59.537300000000000,13.849200000000000
889,1.1030289014393300,-0.07318904320027740,-9.985700000000010,-64.9333,14.148700000000000
890,1.0953679253057900,-0.07596776210020760,-12.260600000000000,-71.25460000000000,14.213800000000000
891,1.091308549076390,-0.08560437288982490,-12.826600000000000,-74.9447,14.22510000000000
892,1.087378617050680,-0.09359651211167940,-13.810200000000000,-73.6966,13.688900000000000
893,1.0844450052566400,-0.09865071806376210,-15.01149999999980,-68.99620000000090,12.16910000000030
894,1.0805316989083900,-0.09220842809726060,-14.874800000000000,-64.6206,10.486000000000000
895,1.0821382675327500,-0.0719520307750354,-13.728300000000000,-64.2464,9.279300000000010
896,1.0931211880713600,-0.0475155560053638,-12.533700000000000,-66.3452,7.777600000000010
897,1.0773109390566600,-0.03132196608423890,-11.430100000000000,-69.2996,7.182200000000010
898,1.0423828915378900,-0.0424812968648826,-11.576100000000000,-72.0465,6.402300000000010
899,1.0042666552900300,-0.05930007027884150,-11.532100000000000,-72.4391,5.567400000000010
900,0.970742727261603,-0.06621056013011590,-11.208000000000000,-68.8501,4.699400000000010
901,0.9537089004094190,-0.08055522866625970,-10.27870000000020,-62.36640000000120,4.12190000000011
902,0.9503819442929040,-0.1038493133231020,-9.593300000000000,-55.4369,3.153700000000010
903,0.9610736253766580,-0.1267342282532770,-9.248200000000000,-49.8752,2.8233000000000100
904,0.9708717313149750,-0.1338313618412000,-9.315900000000000,-46.8828,2.393000000000010
905,0.9806824015438500,-0.13097809748487000,-9.195600000000000,-46.3287,2.312000000000010
906,0.9837497189968030,-0.12518057769982600,-10.642000000000000,-46.0493,2.1963000000000100
907,0.9799277238302580,-0.11355808875609900,-12.160300000000000,-45.8954,1.5094000000000100
908,0.9721678139119880,-0.09794662762513200,-13.008600000000000,-44.7309,0.46660000000000500
909,0.9651739355845280,-0.08512506921324040,-13.073200000000000,-42.25580000000040,-0.6848999999997900
910,0.9746533326875130,-0.08204200638342360,-12.535900000000000,-38.7794,-1.0959000000000000
911,0.9979115550978160,-0.08585764938077750,-11.573400000000000,-35.4744,0.021400000000004300
912,1.0319338233035700,-0.09366168436724070,-10.324400000000000,-33.3664,1.9086000000000000
913,1.0636625682980400,-0.10048646494980500,-9.359200000000000,-32.0732,3.759000000000000
914,1.0534023545553300,-0.1065088415208050,-9.603100000000000,-32.5225,4.667100000000000
915,1.0358468795664200,-0.09970502809828040,-10.484100000000000,-35.228,4.350000000000000
916,1.014128583022750,-0.10062807330739900,-12.389800000000000,-37.6895,3.279500000000010
917,1.0062049972110800,-0.09383973516950250,-13.592600000000000,-37.1561,0.9959000000000050
918,1.0100685665747200,-0.08697118964172400,-13.340100000000000,-34.81000000000040,-1.9424999999994700
919,1.0188235763079100,-0.08307805018023500,-13.033400000000000,-33.3963,-3.7949000000000000
920,1.0325029576562800,-0.07333807409258020,-12.207100000000000,-32.9888,-4.257700000000000
921,1.040361441236300,-0.0645103395247104,-11.921700000000000,-33.0165,-4.578400000000000
922,1.0385333969806200,-0.06251891947810940,-12.347100000000000,-32.7125,-5.058000000000000
923,1.0141903141031900,-0.06444988888152440,-13.486900000000000,-33.6402,-4.730400000000000
924,0.9926396147920040,-0.07124583961903410,-14.375500000000000,-35.3414,-3.7731000000000000
925,0.9731640141026750,-0.08392849059566730,-15.329100000000000,-35.7051,-3.1105000000000000
926,0.9380669388629210,-0.09374884413127660,-16.642599999999800,-34.33980000000020,-2.282100000000140
927,0.9047740597349760,-0.09859791003043870,-16.890600000000000,-31.037,-1.3560000000000000
928,0.8859944467172790,-0.11335940090652800,-16.734800000000000,-26.433,-0.3895999999999970
929,0.8713314794858590,-0.11525302755783100,-16.7425,-21.3459,0.9078000000000030
930,0.8507970472179590,-0.107438338933275,-17.3011,-16.846,2.4759000000000000
931,0.8273463790897000,-0.10353003429305600,-18.1171,-13.0163,3.439200000000000
932,0.802921118149419,-0.09275603509863220,-19.1346,-9.604300000000000,3.6195000000000000
933,0.7785048802904150,-0.078100440384841,-19.4906,-6.837200000000000,2.5237000000000000
934,0.7550487102833320,-0.0664051265722771,-19.039900000000100,-4.666800000000380,1.5372000000001800
935,0.7286905892940000,-0.06250277396460570,-18.7067,-2.9066000000000000,1.0194000000000000
936,0.7140691662494330,-0.051719221507854500,-18.8333,-0.06439999999999880,0.2093
937,0.7043269694034150,-0.033150320445820000,-19.1381,3.7830000000000000,-0.9712000000000000
938,0.7073050163715440,-0.01556287453921580,-19.4267,7.320500000000000,-1.730400000000000
939,0.7219974436632290,0.003963833602708270,-18.7406,10.203000000000000,-2.110000000000000
940,0.7416388609769900,0.015768894892751300,-17.4817,13.060900000000000,-1.6886000000000000
941,0.7504344145554290,0.024484991337510700,-15.9619,15.257100000000000,-2.0651000000000000
942,0.7680252716269060,0.02438432696180640,-14.25,16.5745,-3.182500000000000
943,0.774742965640661,0.019426673981431700,-12.32640000000030,18.414699999999700,-4.590899999999750
944,0.784679088710212,0.011689341773184400,-11.018300000000000,19.6334,-5.872200000000000
945,0.8031705833388570,0.014706732176635100,-9.343900000000000,20.7352,-7.6270000000000000
946,0.8069375297068830,0.01865746130431890,-7.672200000000000,22.189700000000000,-9.353400000000000
947,0.8119104078864850,0.028448314766000500,-7.326700000000000,23.9034,-11.111400000000000
948,0.8206872850871600,0.034251646535769,-6.797000000000000,26.0887,-12.440100000000000
949,0.82452562583553,0.0381349126256162,-5.567800000000000,27.858900000000000,-13.612600000000000
950,0.8244623542290180,0.04313631054437540,-4.070100000000000,28.9973,-14.083500000000000
951,0.821581700519546,0.056858836626164400,-2.48330000000028,30.920499999999700,-13.940200000000000
952,0.825572143208945,0.059692814396353400,-0.7690999999999980,32.8978,-13.931500000000000
953,0.8274471234927320,0.06860946932948550,1.4431000000000000,35.0255,-13.781600000000000
954,0.8284512964060100,0.07530772670585770,4.064900000000000,37.1349,-13.640400000000000
955,0.8314272626636010,0.07930607209393620,5.934200000000000,38.99,-14.040400000000000
956,0.8332381110470960,0.08383819976240600,7.555200000000000,40.6806,-15.316600000000000
957,0.8262250561710680,0.06706586220574810,8.572400000000000,41.820800000000000,-16.418900000000000
958,0.816481228768234,0.05941926098106890,8.787600000000000,42.7459,-17.40650000000000
959,0.8118197669336630,0.0496045093584472,8.627800000000030,43.84209999999980,-18.631799999999800
960,0.8168263966390160,0.04285961605645140,8.088300000000000,44.4393,-20.259300000000000
961,0.8227200392488770,0.03589541786440830,6.004600000000000,44.0657,-20.92150000000000
962,0.828399548734787,0.021087981298404600,2.707700000000000,42.531,-21.00240000000000
963,0.8233903881651740,6.32215894315734E-05,-1.2630000000000000,41.1177,-21.669900000000000
964,0.8235886558712710,-0.03022604183895630,-6.126900000000000,40.5429,-22.520100000000000
965,0.8233940694222800,-0.05353445138757890,-10.390700000000000,40.4012,-22.433300000000000
966,0.8164264400585320,-0.071465704700382,-13.772600000000000,41.0476,-20.904000000000000
967,0.804245100273794,-0.0630982173015251,-15.705900000000000,41.2858,-18.351700000000000
968,0.7756846172036370,-0.051249781199494400,-16.623799999999800,40.1916000000002,-14.658300000000700
969,0.7525126442465060,-0.02834134823818540,-16.151500000000000,39.1966,-11.082200000000000
970,0.7416184139945850,0.005146427444642080,-14.168400000000000,39.091,-7.980300000000000
971,0.758714462094599,0.04110527697021910,-11.698000000000000,40.1116,-4.577800000000000
972,0.7806818336944830,0.06722497654142850,-10.153600000000000,41.2648,-1.8306000000000100
973,0.8293667490223470,0.08631709627650620,-8.106900000000000,41.3176,-0.5308000000000050
974,0.8896579177496900,0.09001547923093000,-6.094300000000000,40.0937,0.7902999999999950
975,0.9469478015734220,0.09490165780363320,-4.952100000000000,38.8925,1.8663000000000000
976,0.9899946715748930,0.09465876485853980,-4.957500000000000,37.52590000000020,1.4214000000000700
977,1.008505302738450,0.09168997105025660,-5.096000000000000,34.6393,1.1057000000000000
978,1.0056056625453100,0.0898978490616061,-4.284400000000000,30.973300000000000,0.5454999999999960
979,0.9846949117690550,0.09411581944904730,-2.9407000000000000,27.5873,0.13249999999999700
980,0.9632853406514970,0.10511827665920600,-0.9002999999999980,24.7985,0.7568999999999970
981,0.9428469411776700,0.1164890396414680,1.3196000000000000,22.473300000000000,1.9898000000000000
982,0.9253944413535710,0.11950018791330400,3.6017000000000000,21.1404,3.3253000000000000
983,0.9131230308107250,0.1324609438595240,5.662000000000000,20.1499,4.567900000000000
984,0.9125053798901770,0.13970409731151700,7.949399999999600,19.144900000000200,5.139899999999900
985,0.9155642444565680,0.1345095534356790,9.797900000000000,17.5568,6.003500000000000
986,0.9237908737540340,0.1264018247413740,10.915500000000000,17.0808,6.925100000000000
987,0.9353064661938580,0.11370714965865000,11.453400000000000,17.5196,7.704200000000000
988,0.937802918703125,0.10732962180765100,11.614700000000000,17.7857,8.304400000000000
989,0.9367754278270360,0.10409909862185300,11.672400000000000,17.273,9.568000000000000
990,0.9358413488500150,0.094510114096047,10.592800000000000,17.5369,10.295300000000000
991,0.9404554445095930,0.09355665850213880,8.892000000000000,18.579600000000000,10.764800000000000
992,0.9570755100671480,0.07994017863388610,7.270300000000000,18.9451,11.034200000000000
993,0.9600130932173570,0.05883141023693480,6.174100000000200,18.76080000000000,11.062800000000000
994,0.9544433011986770,0.05593845232571770,5.608200000000000,17.6,10.554500000000000
995,0.9583176742516560,0.0673881422606088,4.962700000000000,15.157800000000000,9.956900000000000
996,0.9567610926973020,0.09406171097163650,5.885600000000000,12.586200000000000,9.241900000000000
997,0.9697938632356620,0.13565033299852600,8.1447,10.647100000000000,8.769300000000000
998,0.9739867550590670,0.17610294709202400,12.5123,7.631000000000000,7.586300000000000
999,0.9705142392356210,0.21183867042262100,17.6879,4.7663,6.551400000000000
1000,0.958479359465261,0.2642251497912130,22.4229,3.7620000000000000,5.172700000000000
1001,0.9493269440226800,0.3089045072680190,28.120299999999000,5.337799999999720,3.5135000000002900
1002,0.9459707379176380,0.3310935145539000,33.8294,7.326400000000000,2.6409000000000000
1003,0.9324312843529650,0.33917319366960200,38.5859,9.319800000000000,1.9882000000000000
1004,0.9225748685024960,0.3388869759295990,42.9348,10.679800000000000,1.7363000000000000
1005,0.8776755459101730,0.33565008056777800,45.8875,12.250900000000000,1.5219000000000000
1006,0.8141306160615500,0.31927161751464600,47.2924,15.518000000000000,0.972899999999998
1007,0.7749854284388660,0.2488281619003430,47.1987,20.031200000000000,-0.5349000000000030
1008,0.8815618330316670,0.0671634055156449,41.9586,29.966000000000000,-3.1906000000000000
1009,1.0454852109435700,-0.16876997296728100,27.011400000002700,41.41519999999800,-7.231999999999290
1010,1.286998985066260,-0.4277804119959420,-0.48889999999999800,39.0493,-15.035100000000000
1011,1.4913173774020700,-0.6390246694334970,-19.6656,25.013200000000000,-25.452100000000000
1012,1.4706467386212400,-0.6093343505376460,-22.8189,9.815100000000000,-35.8372
1013,1.2886512192848700,-0.319114253776774,-19.4304,-1.067800000000000,-42.8972
1014,1.1350028601714100,0.05387918911147020,-15.1877,-2.808800000000000,-39.9311
1015,1.0259391762018600,0.24876990200527200,-7.514100000000000,2.718900000000000,-27.8706
1016,0.9889856570082550,0.29289782117236800,4.361900000000000,9.4256,-12.180500000000000
1017,1.0159941600954500,0.24077416155364000,14.2552,11.025100000000000,1.7487000000000000
1018,1.0838689885536700,0.16357364848344100,16.58199999999960,5.358600000001010,11.59249999999830
1019,1.0962388827275400,0.03979001782463930,13.2269,-4.9149000000000000,19.8744
1020,1.0417451237476600,-0.0860134525857455,8.623000000000000,-15.005100000000000,25.650700000000000
1021,0.9502077348024050,-0.19538213070722400,7.907900000000000,-20.311600000000000,27.980500000000000
1022,0.8525203457041910,-0.29107624912686800,9.666200000000000,-21.849500000000000,26.429100000000000
1023,0.7534542557958120,-0.34767717768045200,9.649100000000000,-20.469800000000000,22.118500000000000
1024,0.6710906796000670,-0.35427111943426200,6.154800000000000,-16.841600000000000,16.270500000000000
1025,0.665716614419807,-0.31580389332748700,0.12649999999999900,-11.9958,9.812200000000000
1026,0.699797222547959,-0.24523490484519400,-6.982899999998740,-5.612800000001130,3.8723000000010600
1027,0.772348617999011,-0.16420340353739600,-13.3155,-0.7606000000000000,-2.1354
1028,0.8693489024590460,-0.10947237353224600,-16.6588,1.6357000000000000,-6.2464
1029,0.9568554449174800,-0.07102101284332580,-17.289,2.5703000000000000,-7.3496
1030,1.0426056376030600,-0.02240371060453880,-15.434200000000000,2.7453,-5.7155
1031,1.1000426916837000,-0.0008861125970643220,-12.4092,1.9617000000000000,-0.8990000000000000
1032,1.1191297696970900,-0.015421276185037800,-9.4698,1.1115000000000000,4.9144
1033,1.0924847907491300,-0.026588139537966700,-6.2539,2.916900000000000,9.2226
1034,1.0551277637623500,-0.014250136254482700,-1.816000000000790,5.668999999999510,11.573499999999600
1035,1.0211498907170100,0.014912942595075700,2.8343000000000000,5.777000000000000,12.4059
1036,0.9583973514604890,0.024248240489871600,6.7795,3.136300000000000,13.074
1037,0.9112720587254570,0.01824159929231690,9.6784,-0.16339999999999900,12.5903
1038,0.8890404268837980,0.011940377498942000,12.9564,-2.2441000000000000,10.5778
1039,0.8638330488597030,-0.006571744173596560,15.9911,-5.0148,8.9179
1040,0.8276667885057590,-0.004130120387696170,17.7463,-8.221100000000000,6.932300000000000
1041,0.8134725113264980,-0.014865566416666300,18.9333,-11.204700000000000,4.382300000000000
1042,0.8089551086864530,-0.028471292612666000,19.94,-12.452600000000000,2.380100000000000
1043,0.8305074585612790,-0.05310246386890100,19.105900000000100,-12.760599999999900,1.7415000000001200
1044,0.8522074788638320,-0.07382369992811010,18.2306,-11.459700000000000,2.2701000000000000
1045,0.8878681665706430,-0.09612218459922610,17.0206,-9.015200000000000,3.3075000000000000
1046,0.9016325369417690,-0.1012085515339080,15.3244,-6.947100000000000,5.073500000000000
1047,0.9103202336883650,-0.11033089670784600,12.9709,-6.1231,6.1625000000000000
1048,0.9210013711716030,-0.11684985285495100,10.6312,-6.0648,7.2177
1049,0.9439815986498960,-0.12572255277796200,8.5522,-7.0546,8.212600000000000
1050,0.9783552768580510,-0.14476874682995700,6.898700000000000,-10.075100000000000,8.046800000000000
1051,1.0170463794160000,-0.16224771569292000,5.479600000000250,-13.144799999999500,7.761800000000050
1052,1.0448146219453100,-0.18216011554404400,3.2991000000000000,-14.3524,7.841600000000000
1053,1.0575090969597200,-0.20088569010824300,-0.5470000000000010,-13.1551,7.521700000000000
1054,1.0474859141602900,-0.20985257219335900,-5.8302000000000000,-10.501700000000000,6.761300000000000
1055,1.00781153582518,-0.21673738327563400,-12.0308,-6.9347000000000000,5.792700000000000
1056,0.9539126900011730,-0.22079986056400500,-17.7201,-3.9797000000000000,5.1785000000000000
1057,0.9067885176487380,-0.21868978999964300,-21.9521,-1.109700000000000,4.9059
1058,0.8621787539373790,-0.22286065430090800,-25.1627,3.3881000000000000,5.3207000000000000
1059,0.8258328422346130,-0.2308257943028440,-25.99889999999990,8.498799999999100,7.159299999999670
1060,0.8047228934345570,-0.21870431495974700,-24.4168,12.475700000000000,8.460200000000000
1061,0.7995510673165660,-0.1699589489886970,-21.6477,15.0368,9.165700000000000
1062,0.8332310286285330,-0.08289400733175960,-19.5144,16.7394,9.880500000000000
1063,0.8925074008147530,-0.010753722270092300,-17.8866,18.2792,10.946100000000000
1064,0.9635178600541470,0.014616761452687700,-14.231200000000000,18.5209,11.412000000000000
1065,1.0159006681690500,-0.006711001728419030,-9.390000000000000,14.9435,9.4493
1066,1.0293851629659500,-0.04217846345082170,-9.4623,7.9728,5.324600000000000
1067,1.0139712793053700,-0.10922368860926000,-15.9279,2.846200000000000,-0.08190000000000040
1068,1.024976167345630,-0.21014872332548100,-24.573599999998500,4.380699999999730,-5.411599999999050
1069,1.1623833602912300,-0.2871724360204560,-25.818,7.228500000000000,-5.940100000000000
1070,1.367501805835840,-0.240882118419644,-22.4275,10.268000000000000,-0.8388000000000010
1071,1.5142528896106200,-0.019410488454263300,-16.8086,16.0127,4.458900000000000
1072,1.5844055059067100,0.2125032273610250,-11.598900000000000,17.0881,7.349000000000000
1073,1.5325851598660100,0.30353718439018400,-8.327000000000000,16.1372,6.942400000000000
1074,1.3756393847236300,0.2136226296237760,-8.864100000000000,17.7592,3.1987000000000000
1075,1.233939936023010,0.018068320119510600,-8.933700000000000,17.0536,-1.1778000000000000
1076,1.1233689373231600,-0.12010007276692500,-10.935199999999600,9.941800000001260,-5.704799999999200
1077,1.1063345602830700,-0.14054578473790800,-17.5202,0.9592000000000000,-8.593
1078,1.082855612497640,-0.11758081246909000,-22.6539,-6.1805,-9.3168
1079,1.0435603536273900,-0.0700057061279847,-20.5512,-6.672700000000000,-8.630700000000000
1080,0.9998322609963650,0.003029314475381390,-13.2012,1.0782,-6.7001
1081,0.9862879457714920,0.059724105081755600,-5.967500000000000,8.264900000000000,-1.683500000000000
1082,0.9988510359195040,0.07939096108253070,0.10390000000000100,10.6753,6.163700000000000
1083,0.9911095022765170,0.038854438335211200,4.410400000000000,9.709300000000000,12.110400000000000
1084,0.969676513161991,-0.036065706015802600,5.961399999999730,8.377500000000240,12.532999999999900
1085,0.9796393853660530,-0.08384210109466540,6.957600000000000,7.748500000000000,7.587800000000000
1086,1.0069019152004,-0.09601302732329600,8.2286,6.395700000000000,0.0008999999999992170
1087,1.0318972308076700,-0.08891922487291800,10.2411,3.7153000000000000,-8.9535
1088,1.0023376065425000,-0.06196330974389840,11.2855,2.0456000000000000,-15.2607
1089,0.9518129629690060,-0.007190405439166360,10.7665,4.7202000000000000,-18.7139
1090,0.9061102760371790,0.04920937442449760,10.0093,9.707900000000000,-20.6242
1091,0.8743116971952710,0.09073956649824350,9.432600000000000,13.558700000000000,-22.012700000000000
1092,0.8454336556826290,0.09420423964350650,8.60120000000015,14.516399999999800,-21.978400000000000
1093,0.8114970067148370,0.08412585799432190,8.22470000000007,13.82900000000010,-21.017500000000200
1094,0.765376557121953,0.06189966801099250,7.259200000000000,13.259000000000000,-19.396300000000000
1095,0.7391232419225730,0.046091519713663600,6.287000000000000,14.769800000000000,-17.173200000000000
1096,0.726984876813183,0.04051047385192700,6.294600000000000,16.096000000000000,-13.881100000000000
1097,0.7360166010411300,0.04042387427918810,7.734200000000000,15.744800000000000,-11.226300000000000
1098,0.7661860735623280,0.041797843473561300,9.218400000000000,13.360800000000000,-9.110000000000000
1099,0.8067080713495440,0.046536321608296400,10.6935,10.813000000000000,-7.957900000000000
1100,0.8579355449312460,0.06283402708366260,12.251000000000000,9.495400000000000,-6.668000000000000
1101,0.9076793718650010,0.058302759708973700,13.674399999999700,8.80520000000012,-5.122400000000280
1102,0.9191358141057340,0.05324455239046970,15.5784,8.244900000000000,-3.2305000000000000
1103,0.908808657502817,0.060785467524587900,17.925,8.314500000000000,-2.0438000000000000
1104,0.8917620862985830,0.0868676442821962,20.7426,9.042500000000000,-1.0678000000000000
1105,0.8700863843004490,0.11248769322857400,24.2153,11.56,0.2706999999999990
1106,0.8405857801899730,0.13580277505570200,27.7125,15.493100000000000,1.564900000000000
1107,0.8220281729846590,0.1501401911152130,28.6008,18.708700000000000,2.0922000000000000
1108,0.8043443641712510,0.1657517622837560,26.2847,20.552400000000000,1.9289000000000000
1109,0.7994262947081840,0.1527649574421460,24.393200000000300,23.995999999999400,2.949599999999820
1110,0.8048705338520290,0.12714055700978400,23.934800000000000,27.1115,4.629000000000000
1111,0.8169492986085970,0.08423864651027620,22.3189,25.4697,5.5522000000000000
1112,0.852294458566381,0.033211901475019500,17.7592,21.2192,4.954900000000000
1113,0.8963316767601580,-0.0038728125200757200,11.141100000000000,17.4476,2.957100000000000
1114,0.9511722541744630,-0.04356142571622320,3.279000000000000,13.342000000000000,0.6771999999999990
1115,1.0069608253175100,-0.06411165337806500,-0.12939999999999900,10.610300000000000,-0.39000000000000100
1116,1.0525280459892000,-0.07120261485828500,3.3431000000000000,9.6953,0.5837999999999990
1117,1.089251096480440,-0.0716279901189499,11.602599999998500,10.647299999999800,1.5133999999998300
1118,1.0801467374485700,-0.04332044342360030,19.992699999998500,11.88059999999980,1.6768999999999700
1119,1.0412189540668800,0.0397223747253139,26.928,15.530700000000000,1.070300000000000
1120,1.000958515599110,0.14534524369687900,32.8124,20.868400000000000,0.32349999999999700
1121,0.9714486983424520,0.2452383660271350,39.5135,25.3043,1.0518000000000000
1122,0.9704429648962700,0.29775880114004300,40.6099,23.1085,-1.6131000000000000
1123,1.031047410604030,0.32830588261027000,33.7784,12.159900000000000,-7.9917000000000000
1124,1.2160098331030500,0.26217345916291500,25.5247,1.1707000000000000,-11.5452
1125,1.3985045829207700,0.0613461089770716,19.2969,-1.2753000000000000,-13.7045
1126,1.4865382253776600,-0.12433803998304000,13.032000000001100,0.8024999999996280,-17.0729999999994
1127,1.5205510703655200,-0.1990740414514640,8.6676,3.3613000000000000,-18.3791
1128,1.4745602950548900,-0.21467260817914400,9.9641,2.9565000000000000,-15.91
1129,1.3495179245512000,-0.21240418353872100,15.429,-5.326200000000000,-9.7333
1130,1.197833646148280,-0.22656998099249000,19.8784,-15.5868,-2.1438000000000000
1131,1.047952563515570,-0.2815272582584270,20.7466,-19.574,2.635200000000000
1132,0.9264566640901840,-0.34015036736296300,17.3375,-16.8002,1.011400000000000
1133,0.8617474366475810,-0.35645717594693400,10.8351,-13.2026,-3.8751000000000000
1134,0.8648816769539030,-0.3330234335986340,2.8189000000014200,-13.205300000000000,-10.11739999999890
1135,0.9037685963810270,-0.2937108688186080,-5.575700000000000,-14.324900000000000,-15.934500000000000
1136,0.960333852752979,-0.22874070226835900,-12.710900000000000,-14.033600000000000,-18.195700000000000
1137,1.0540765147731400,-0.16173101924714400,-18.3064,-11.1345,-15.888800000000000
1138,1.158950658063660,-0.10185362181784800,-23.9058,-6.290000000000000,-9.1446
1139,1.2538123122065100,-0.0515575563010815,-28.794800000000000,-2.6570000000000000,1.5049000000000000
1140,1.2934769772246400,-0.019489455420556600,-31.478300000000000,-2.2685000000000000,12.2137
1141,1.2427986511703800,-0.0421126109629691,-32.6093,-5.458400000000000,20.1867
1142,1.1206498287794700,-0.07467119933921820,-32.11270000000010,-8.678099999999430,24.148699999999300
1143,1.0112830613104600,-0.09250286864525300,-31.240300000000200,-11.527899999999500,26.354399999999600
1144,0.9342329295936940,-0.11651113718752100,-29.374800000000000,-13.806000000000000,26.394200000000000
1145,0.8750855914710940,-0.1356426603784170,-27.6231,-15.086200000000000,25.617200000000000
1146,0.8358047675301960,-0.13996500640891600,-26.6178,-15.511700000000000,24.603600000000000
1147,0.8091738233749550,-0.11968058951833700,-25.2075,-15.714100000000000,23.386300000000000
1148,0.768891177323551,-0.09152231379727030,-24.0447,-17.6923,21.239700000000000
1149,0.7357069052836600,-0.049561224577200200,-23.3526,-20.623600000000000,19.241400000000000
1150,0.7082413761274240,-0.0016438113423034900,-23.5718,-22.509400000000000,16.724300000000000
1151,0.6888317579703600,0.0174345036786228,-24.541199999999800,-22.925399999999900,14.299400000000400
1152,0.6882082050343390,0.011486722581105600,-25.6847,-22.9719,12.282200000000000
1153,0.6974458195714130,-0.00015768384718538200,-26.7986,-23.004700000000000,10.489000000000000
1154,0.7114687282303340,-0.026783966410548000,-28.5306,-23.971700000000000,8.005100000000000
1155,0.7439315138910840,-0.05149297424706710,-29.916300000000000,-25.579900000000000,6.8350000000000000
1156,0.7800620920599800,-0.08396175195403120,-30.724200000000000,-27.481700000000000,5.4558000000000000
1157,0.8113918207950730,-0.10232598312369700,-31.309,-28.583500000000000,3.682800000000000
1158,0.838010220666584,-0.12192775689965100,-31.865999999999900,-27.200500000000200,1.7470000000003500
1159,0.8650738025625470,-0.1333930421601670,-33.15760000000000,-22.655700000000000,-0.45789999999999700
1160,0.8903731920074650,-0.1403314915592990,-33.8096,-18.003800000000000,-3.0115000000000000
1161,0.9116809483564690,-0.1357002800548620,-33.294100000000100,-14.65890000000060,-5.130799999999620
1162,0.8927219640855890,-0.11457298533137700,-33.4747,-7.417199999998260,-6.206699999999960
1163,0.859309744204188,-0.08479553668174150,-33.4888,2.344600000000000,-5.986900000000000
1164,0.8241458661520500,-0.08308562276618420,-33.6932,11.030800000000000,-5.848300000000000
1165,0.7885449888697980,-0.09158899656865500,-33.8132,18.269900000000000,-6.083000000000000
1166,0.7631416439252960,-0.10104424542529800,-33.4368,22.957300000000000,-6.014600000000000
1167,0.7509217909887700,-0.13367722920670600,-30.87880000000050,23.132000000000000,-5.709400000000060
1168,0.7899018822329750,-0.13985592916031500,-23.7528,16.5441,-4.243400000000000
1169,0.8923281295957340,-0.10548177078819000,-12.8159,5.543900000000000,0.2491999999999990
1170,0.9874306860038850,-0.0889962811867458,-1.5683000000000000,-3.2406000000000000,3.9692000000000000
1171,1.051391437850860,-0.084154407743716,6.634000000000330,-7.089699999999490,4.749899999999740
1172,1.1012391202500300,-0.033546735817022200,8.4893,-4.1929,3.2506000000000000
1173,1.1167302002722600,0.010844973431294000,4.0683,3.9492,0.7633999999999990
1174,1.1155593204305200,-0.009268605119991580,-3.3497999999986800,12.137399999998500,-0.13409999999984200
1175,1.111098727190220,-0.07859991094818320,-11.914600000000000,18.7853,-0.7611000000000020
1176,1.139497775132180,-0.11181694417563000,-18.953299999998700,20.65729999999970,0.3098999999998070
1177,1.2550545364115000,-0.08962289516807880,-19.450599999999900,12.000800000001500,5.949799999999000
1178,1.3333939283955300,-0.0170573448833191,-15.616800000000000,2.695400000000000,11.3933
1179,1.3383960565636600,0.07138614753254160,-8.3518,4.608200000000000,17.349800000000000
1180,1.3425174339657300,0.12663259354621600,-1.360900000000000,15.243600000000000,23.909400000000000
1181,1.3137428277750300,0.1231095404648890,2.4274000000000000,27.136100000000000,26.880700000000000
1182,1.2461735936736800,0.0484212552910524,3.8145000000000000,27.154400000000000,22.469300000000000
1183,1.1661021702212400,-0.04128988000997740,-0.6318999999992090,14.872000000002200,12.21660000000180
1184,1.1102996042991200,-0.054229648789342000,-11.3108,2.212000000000000,2.4338000000000000
1185,1.118260672910730,-0.015927439033717000,-20.4275,-2.4805000000000000,-2.8024000000000000
1186,1.1292247170032600,0.0202243463771967,-21.805899999999800,3.656499999998910,-3.428599999999890
1187,1.124504405072070,0.0561365199634993,-16.155299999998700,13.30920000000050,-0.6624999999989980
1188,1.1554530536727600,0.08563240246159480,-8.880000000000000,15.8912,4.989700000000000
1189,1.1991721932464200,0.09338957144386710,-3.9399000000000000,10.923100000000000,12.053400000000000
1190,1.2270932779695400,0.04974427708748650,0.02410000000000040,6.249400000000000,14.805400000000000
1191,1.2181619280182300,-0.04947964671931810,5.2781,6.231800000000000,8.6091
1192,1.1801642422539900,-0.12706007952765400,13.158599999998600,6.095900000000020,-2.613999999998010
1193,1.1401176368076800,-0.11258695712603200,17.9343,4.665200000000000,-11.9528
1194,1.1112617228513300,-0.02672432604406200,19.3208,3.5200000000000000,-18.5008
1195,1.0566382295687100,0.062263892389348000,18.4232,0.039999999999996100,-22.9074
1196,0.9721585607521310,0.13219942455375400,16.489699999999900,-2.404299999999880,-25.328900000000100
1197,0.9032052540062100,0.17601449688731600,16.0247,-1.6958000000000000,-25.9365
1198,0.8466581138207240,0.17790690312186100,15.6603,0.0010999999999958500,-26.037
1199,0.8163798141363310,0.1483758186026880,14.338800000000200,1.470699999999740,-25.295200000000100
1200,0.8240608071053830,0.0861835206619997,12.134,2.3600000000000000,-23.5276
1201,0.8291238160635890,0.030086174075764600,9.945000000000390,3.9033999999997200,-21.333800000000400
1202,0.8299876110394480,-0.006365353693660640,7.07720000000051,4.8359999999998300,-19.199100000000400
1203,0.8106596107539260,-0.019519365634544400,4.8555999999998500,4.5695999999998200,-16.382399999999200
1204,0.8011436111516170,-0.021762791738259300,4.0307,3.5926000000000000,-12.080800000000000
1205,0.7912210627176460,-0.020857782688277900,5.8992,1.2180000000000000,-8.6315
1206,0.7917855654887250,-0.021898247994983100,7.552000000000000,-2.688700000000000,-5.6949
1207,0.7964280608464660,-0.024565478823043600,8.7818,-6.558600000000000,-3.1011000000000000
1208,0.7976161265569790,-0.005699236222362730,9.788899999999820,-8.293899999999690,-1.7707000000002400
1209,0.8146325174549920,0.02972882204422500,10.8377,-7.5835,-0.02699999999999910
1210,0.8350401764312990,0.06658303732671190,12.8518,-5.224000000000000,2.115100000000000
1211,0.8427412562597820,0.10545803268189800,15.281699999999600,-2.595300000000470,3.905299999999680
1212,0.8452603865132310,0.1403536591292690,17.48840000000040,0.3199000000006790,6.526400000000470
1213,0.8311419152207940,0.16752544797662800,19.6159,4.145000000000000,9.1869
1214,0.8092084251910690,0.17735137341497900,21.5926,9.3645,11.106800000000000
1215,0.771756485792804,0.1656369030606780,22.2869,14.457800000000000,13.469100000000000
1216,0.7392710423947020,0.13302793748119900,23.2248,18.861300000000000,16.163300000000000
1217,0.7240177135617190,0.08555931750394710,25.667499999999600,21.1310999999996,18.814099999999500
1218,0.7384135395675380,0.04612181005746100,25.4394,19.954400000000000,19.588800000000000
1219,0.7776576409681190,0.01989928537268070,20.5251,16.327700000000000,17.3639
1220,0.8449636251727150,0.003297225964014170,9.4778,11.211400000000000,13.1706
1221,0.9449720468763690,-0.011757585077482200,-7.336100000002100,5.991999999999880,8.160499999999200
1222,1.025979119842150,-0.06357582039738350,-19.1612,5.324900000000000,3.642000000000000
1223,1.0720251140093700,-0.12866502759861900,-19.7666,7.742100000000000,0.6349999999999990
1224,1.0964048193929600,-0.1427595006959540,-11.989300000001400,9.26509999999973,-2.3371999999994700
1225,1.1157550572723600,-0.0734620564310953,-1.1697000000000000,10.5481,-3.4356000000000000
1226,1.0939195607062600,0.04941551481900400,9.050099999998190,15.483999999999100,-2.4722000000001700
1227,1.0309472764093900,0.18714748867347800,19.185499999998200,23.101299999998600,0.07299999999954500
1228,0.9634064119959400,0.2820895102609090,30.330700000001700,31.77130000000100,1.590800000000040
1229,0.9525600781000650,0.36174996337179400,39.7409,37.6019,1.8275000000000000
1230,1.0166783837498000,0.41516324338076700,40.3338,30.9492,-0.9832000000000040
1231,1.1527384666731200,0.3665992193358590,31.7636,11.383,-4.977500000000000
1232,1.2909417014576800,0.1886211219019750,20.8961,-4.288800000000000,-7.3919
1233,1.382969878001140,-0.026330211458513000,9.943800000001950,-4.64239999999994,-11.44929999999930
1234,1.466273045056160,-0.21676280195581600,0.6846000000000000,3.693800000000000,-15.5711
1235,1.4915044812958600,-0.32878450605456500,-1.5989000000000000,10.301000000000000,-17.9783
1236,1.431887192690690,-0.306898422213502,1.3123999999994800,9.67590000000011,-17.172800000000100
1237,1.3110145460988000,-0.22976172093425400,7.000700000001060,0.5371999999978810,-13.374699999999000
1238,1.1827143730937700,-0.17091497546052900,12.947,-11.382000000000000,-7.775700000000000
1239,1.0780881944802800,-0.15403206014286200,18.3955,-20.2054,-3.1193000000000000
1240,0.9989355547817040,-0.1583784143718800,21.2381,-25.0378,-2.463400000000000
1241,0.9431644195928280,-0.16592656197580200,19.894,-25.2099,-5.0083000000000000
1242,0.8938456578138390,-0.16077884409049100,14.291200000001000,-22.45150000000050,-9.412499999999210
1243,0.874206471261848,-0.14879730253450500,7.3752000000000000,-18.741900000000000,-13.198200000000000
1244,0.9073528403583280,-0.13753848778125100,0.807299999999999,-16.604400000000000,-14.970900000000000
1245,0.968094222828387,-0.13050027431385900,-4.848400000000000,-15.834600000000000,-14.622800000000000
1246,1.0295187685907100,-0.11526471154777500,-9.66500000000097,-13.211599999999000,-10.801599999998800
1247,1.1057753193088400,-0.10617041595244100,-15.1321,-7.488200000000000,-4.064700000000000
1248,1.1413607213064600,-0.10473540591333400,-19.6435,-3.6635000000000000,3.9587000000000000
1249,1.1055074378304600,-0.11354571453044500,-21.979199999999600,-3.3514000000000500,11.081099999998700
1250,1.0221283548510500,-0.13873838753295000,-22.467,-5.963300000000000,15.322
1251,0.939327409298807,-0.14886151446212300,-21.877100000000100,-9.652899999999340,16.712099999999800
1252,0.8993147954602310,-0.14776923146028500,-20.64210000000020,-12.879499999999400,16.570300000000000
1253,0.8860792256682930,-0.1416152499477370,-19.867300000000000,-16.88040000000050,15.96589999999980
1254,0.8682437150505020,-0.12796638902173500,-19.8883,-19.760600000000000,15.001200000000000
1255,0.8422518791432350,-0.1122133395400060,-19.7164,-20.521800000000000,13.215900000000000
1256,0.8140888317927120,-0.10083015231501100,-20.576,-20.1706,11.702000000000000
1257,0.7922803444499400,-0.09233611169971400,-22.0995,-20.2321,10.133500000000000
1258,0.7884046909597070,-0.08275702055238200,-23.513999999999700,-20.51460000000000,8.956900000000210
1259,0.7891890087950530,-0.0836776049211505,-25.8587,-20.7774,8.204000000000000
